Folder: 2025-Tatiana-MEPAs-FastCooling/XRD/1100C_6w

Note: README.md
# 2025-Tatiana-MEPAs-FastCooling
Initial data repository for Tania Efremenkova's paper on facile fabrication of BCC MPEAs

File: 10_W0.40Ta0.40Cr0.10Ti0.10_HIP1800C_8h_fast cooling_1100C_6w.txt
1.544427
20.3039	17.6000	0.3425
20.6148	17.5200	0.3418
20.9257	16.6533	0.3332
21.2366	16.2533	0.3292
21.5475	15.6800	0.3233
21.8585	16.0667	0.3273
22.1694	15.7200	0.3237
22.4803	14.9067	0.3152
22.7912	14.6867	0.3129
23.1021	15.1200	0.3175
23.4131	14.6533	0.3126
23.7240	14.4067	0.3099
24.0349	14.2133	0.3078
24.3458	13.9667	0.3051
24.6568	14.0800	0.3064
24.9677	13.6533	0.3017
25.2786	13.1867	0.2965
25.5895	12.8533	0.2927
25.9004	12.4067	0.2876
26.2114	13.1067	0.2956
26.5223	12.3000	0.2864
26.8332	11.9000	0.2817
27.1441	12.0333	0.2832
27.4550	11.7667	0.2801
27.7660	11.6400	0.2786
28.0769	11.8667	0.2813
28.3878	11.4800	0.2766
28.6987	11.1600	0.2728
29.0096	11.1067	0.2721
29.3206	10.3133	0.2622
29.6315	10.4867	0.2644
29.9424	10.5067	0.2647
30.2533	10.9133	0.2697
30.5643	10.6267	0.2662
30.8752	9.7267	0.2546
31.1861	9.8800	0.2566
31.4970	10.0600	0.2590
31.8079	9.6200	0.2532
32.1189	9.6067	0.2531
32.4298	9.7000	0.2543
32.7407	9.7667	0.2552
33.0516	10.9667	0.2704
33.3625	13.6867	0.3021
33.6735	11.2400	0.2737
33.9844	9.3533	0.2497
34.2953	9.1333	0.2468
34.6062	9.2933	0.2489
34.9172	8.7333	0.2413
35.2281	9.4600	0.2511
35.5390	9.3467	0.2496
35.8499	10.0200	0.2585
36.1608	12.3867	0.2874
36.4718	19.8933	0.3642
36.7827	13.2200	0.2969
37.0936	10.3533	0.2627
37.4045	10.2667	0.2616
37.7154	12.9733	0.2941
38.0264	26.3000	0.4187
38.3373	32.4800	0.4653
38.6482	13.6667	0.3018
38.9591	11.8867	0.2815
39.2700	14.5133	0.3111
39.5810	27.9667	0.4318
39.8919	85.6000	0.7554
40.2028	91.8333	0.7824
40.5137	24.4800	0.4040
40.8247	11.5800	0.2778
41.1356	8.8733	0.2432
41.4465	8.0800	0.2321
41.7574	7.2667	0.2201
42.0683	7.5400	0.2242
42.3793	7.5333	0.2241
42.6902	7.0667	0.2171
43.0011	7.0800	0.2173
43.3120	7.0600	0.2169
43.6229	6.3267	0.2054
43.9339	6.6733	0.2109
44.2448	6.3200	0.2053
44.5557	6.1067	0.2018
44.8666	5.8800	0.1980
45.1775	5.9200	0.1987
45.4885	5.7867	0.1964
45.7994	5.9200	0.1987
46.1103	5.8467	0.1974
46.4212	5.5800	0.1929
46.7322	5.4800	0.1911
47.0431	5.5600	0.1925
47.3540	5.5667	0.1926
47.6649	4.9933	0.1825
47.9758	5.3400	0.1887
48.2868	5.1000	0.1844
48.5977	5.4867	0.1913
48.9086	5.2133	0.1864
49.2195	5.6733	0.1945
49.5304	6.0733	0.2012
49.8414	6.6933	0.2112
50.1523	9.8067	0.2557
50.4632	8.9933	0.2449
50.7741	6.5067	0.2083
51.0851	5.1400	0.1851
51.3960	4.8600	0.1800
51.7069	4.6267	0.1756
52.0178	4.8600	0.1800
52.3287	4.9067	0.1809
52.6397	4.6933	0.1769
52.9506	4.8667	0.1801
53.2615	4.6133	0.1754
53.5724	4.6533	0.1761
53.8833	5.0000	0.1826
54.1943	4.9333	0.1814
54.5052	4.7667	0.1783
54.8161	4.6067	0.1752
55.1270	4.6867	0.1768
55.4379	4.5133	0.1735
55.7489	4.6400	0.1759
56.0598	4.5933	0.1750
56.3707	4.8600	0.1800
56.6816	5.0067	0.1827
56.9926	5.8200	0.1970
57.3035	8.2467	0.2345
57.6144	15.4467	0.3209
57.9253	23.8400	0.3987
58.2362	14.3467	0.3093
58.5472	7.3533	0.2214
58.8581	5.8467	0.1974
59.1690	6.2267	0.2037
59.4799	7.3533	0.2214
59.7908	9.4933	0.2516
60.1018	6.1533	0.2025
60.4127	5.0267	0.1831
60.7236	4.6067	0.1752
61.0345	4.7533	0.1780
61.3455	4.3467	0.1702
61.6564	3.9667	0.1626
61.9673	4.0933	0.1652
62.2782	4.1000	0.1653
62.5891	4.5267	0.1737
62.9001	4.0867	0.1651
63.2110	4.2000	0.1673
63.5219	4.1600	0.1665
63.8328	3.9933	0.1632
64.1437	4.4600	0.1724
64.4547	4.1600	0.1665
64.7656	4.4667	0.1726
65.0765	4.3800	0.1709
65.3874	4.3400	0.1701
65.6983	4.4533	0.1723
66.0093	5.1533	0.1854
66.3202	6.2600	0.2043
66.6311	8.6200	0.2397
66.9420	9.1267	0.2467
67.2530	5.6733	0.1945
67.5639	4.5733	0.1746
67.8748	4.2800	0.1689
68.1857	4.3867	0.1710
68.4966	4.4133	0.1715
68.8076	4.0533	0.1644
69.1185	4.0800	0.1649
69.4294	4.4667	0.1726
69.7403	4.9133	0.1810
70.0512	5.0133	0.1828
70.3622	5.2133	0.1864
70.6731	5.1200	0.1848
70.9840	5.8000	0.1966
71.2949	7.0933	0.2175
71.6059	9.7067	0.2544
71.9168	16.0800	0.3274
72.2277	23.4733	0.3956
72.5386	31.6600	0.4594
72.8495	36.3333	0.4922
73.1605	23.3000	0.3941
73.4714	10.5467	0.2652
73.7823	6.5267	0.2086
74.0932	5.5133	0.1917
74.4041	4.7333	0.1776
74.7151	4.2467	0.1683
75.0260	4.0800	0.1649
75.3369	4.2667	0.1687
75.6478	4.1333	0.1660
75.9587	4.0333	0.1640
76.2697	4.1533	0.1664
76.5806	4.0933	0.1652
76.8915	4.2600	0.1685
77.2024	4.7200	0.1774
77.5134	4.6400	0.1759
77.8243	4.2000	0.1673
78.1352	3.9400	0.1621
78.4461	3.7333	0.1578
78.7570	3.9267	0.1618
79.0680	4.0200	0.1637
79.3789	3.6867	0.1568
79.6898	3.9467	0.1622
80.0007	3.7933	0.1590
80.3116	3.7467	0.1580
80.6226	3.8933	0.1611
80.9335	3.8667	0.1606
81.2444	4.1600	0.1665
81.5553	4.3867	0.1710
81.8662	4.6333	0.1758
82.1772	4.0533	0.1644
82.4881	3.7933	0.1590
82.7990	3.9933	0.1632
83.1099	3.7267	0.1576
83.4209	3.7067	0.1572
83.7318	4.3800	0.1709
84.0427	3.8533	0.1603
84.3536	4.0133	0.1636
84.6645	4.0733	0.1648
84.9755	4.4267	0.1718
85.2864	5.0933	0.1843
85.5973	5.8400	0.1973
85.9082	7.8800	0.2292
86.2191	11.1600	0.2728
86.5301	11.7533	0.2799
86.8410	9.2467	0.2483
87.1519	6.4667	0.2076
87.4628	5.2533	0.1871
87.7738	4.1600	0.1665
88.0847	4.1400	0.1661
88.3956	4.2333	0.1680
88.7065	4.0267	0.1638
89.0174	4.1933	0.1672
89.3284	4.0533	0.1644
89.6393	3.9933	0.1632
89.9502	3.9600	0.1625
90.2611	4.2400	0.1681
90.5720	4.2533	0.1684
90.8830	4.0733	0.1648
91.1939	4.2533	0.1684
91.5048	4.2133	0.1676
91.8157	4.2067	0.1675
92.1266	4.2400	0.1681
92.4376	4.2867	0.1690
92.7485	4.6800	0.1766
93.0594	4.5467	0.1741
93.3703	4.6600	0.1763
93.6813	4.3467	0.1702
93.9922	4.8400	0.1796
94.3031	5.0267	0.1831
94.6140	4.7333	0.1776
94.9249	5.3733	0.1893
95.2359	5.7333	0.1955
95.5468	6.4467	0.2073
95.8577	6.8400	0.2135
96.1686	6.2733	0.2045
96.4795	5.8467	0.1974
96.7905	5.6267	0.1937
97.1014	5.3000	0.1880
97.4123	5.8400	0.1973
97.7232	6.1733	0.2029
98.0342	6.6600	0.2107
98.3451	6.5733	0.2093
98.6560	7.6667	0.2261
98.9669	9.5667	0.2525
99.2778	11.9133	0.2818
99.5888	14.9133	0.3153
99.8997	16.3800	0.3305
100.2106	14.3133	0.3089
100.5215	11.4467	0.2762
100.8324	9.1400	0.2468
101.1434	8.1933	0.2337
101.4543	8.2467	0.2345
101.7652	8.8267	0.2426
102.0761	7.8333	0.2285
102.3870	6.9667	0.2155
102.6980	6.5933	0.2097
103.0089	6.3600	0.2059
103.3198	6.2867	0.2047
103.6307	5.9733	0.1996
103.9417	6.2267	0.2037
104.2526	6.4733	0.2077
104.5635	6.5733	0.2093
104.8744	6.6000	0.2098
105.1853	7.1267	0.2180
105.4963	7.1667	0.2186
105.8072	7.3933	0.2220
106.1181	7.6533	0.2259
106.4290	7.2133	0.2193
106.7399	6.8600	0.2139
107.0509	6.5267	0.2086
107.3618	6.3667	0.2060
107.6727	6.3667	0.2060
107.9836	6.2267	0.2037
108.2945	6.2000	0.2033
108.6055	6.3733	0.2061
108.9164	6.3333	0.2055
109.2273	6.2667	0.2044
109.5382	6.4400	0.2072
109.8492	6.9600	0.2154
109.9905	6.9333	0.2150