Folder: 2025-Tatiana-MEPAs-FastCooling/XRD/Homogenization (part 2)

File: 7_W0.35Ta0.40Cr0.25_SPS_HT1800C_8h_txt.txt
1.540593
20.2968	73.3333	3.4960
20.6077	73.5484	3.4442
20.9186	65.1613	3.2419
21.2296	70.0000	3.3601
21.5405	66.5625	3.2250
21.8514	61.8750	3.1093
22.1623	60.6250	3.0778
22.4732	61.8750	3.1093
22.7842	63.2813	3.1445
23.0951	53.5294	2.8057
23.4060	56.0000	2.8284
23.7169	51.2857	2.7068
24.0278	52.8571	2.7479
24.3388	55.6944	2.7812
24.6497	51.7568	2.6446
24.9606	47.9730	2.5461
25.2715	51.4865	2.6377
25.5824	45.2703	2.4734
25.8934	44.5946	2.4549
26.2043	46.6667	2.4460
26.5152	46.6667	2.4460
26.8261	44.7436	2.3951
27.1371	40.7500	2.2569
27.4480	45.7500	2.3914
27.7589	45.7500	2.3914
28.0698	46.6250	2.4142
28.3807	42.1250	2.2947
28.6917	40.3571	2.1919
29.0026	41.4286	2.2208
29.3135	36.9048	2.0960
29.6244	35.9524	2.0688
29.9353	36.2500	2.0296
30.2463	38.0000	2.0548
30.5572	35.7778	1.9938
30.8681	33.7778	1.9373
31.1790	36.0000	2.0000
31.4900	33.0851	1.8761
31.8009	33.9362	1.9001
32.1118	32.3404	1.8549
32.4227	29.7872	1.7801
32.7336	27.2449	1.6674
33.0446	30.1020	1.7526
33.3555	31.6327	1.7966
33.6664	28.4694	1.7044
33.9773	27.2449	1.6674
34.2882	26.8000	1.6371
34.5992	26.8000	1.6371
34.9101	26.7000	1.6340
35.2210	27.3000	1.6523
35.5319	28.8462	1.6654
35.8428	25.9615	1.5800
36.1538	26.7308	1.6032
36.4647	25.8654	1.5770
36.7756	25.1852	1.5271
37.0865	23.1818	1.4517
37.3975	22.6364	1.4345
37.7084	24.8182	1.5021
38.0193	24.5455	1.4938
38.3302	29.7368	1.6151
38.6411	32.1053	1.6782
38.9521	40.7018	1.8895
39.2630	71.3158	2.5012
39.5739	232.1053	4.5122
39.8848	319.5763	5.2041
40.1957	81.0169	2.6203
40.5067	38.8136	1.8136
40.8176	27.9167	1.5253
41.1285	27.5833	1.5161
41.4394	23.5000	1.3994
41.7504	23.9167	1.4118
42.0613	18.5833	1.2444
42.3722	20.1613	1.2751
42.6831	21.1290	1.3054
42.9940	20.4839	1.2853
43.3050	22.0161	1.3325
43.6159	22.7419	1.3543
43.9268	17.3438	1.1640
44.2377	19.1406	1.2228
44.5486	19.6875	1.2402
44.8596	18.7500	1.2103
45.1705	18.6719	1.2078
45.4814	19.5313	1.2353
45.7923	18.5938	1.2053
46.1032	17.7344	1.1771
46.4142	17.2656	1.1614
46.7251	16.3281	1.1294
47.0360	16.1719	1.1240
47.3469	17.6563	1.1745
47.6579	17.8125	1.1797
47.9688	17.0313	1.1535
48.2797	18.4375	1.2002
48.5906	17.3438	1.1640
48.9015	14.0625	1.0482
49.2125	18.6719	1.2078
49.5234	17.5000	1.1693
49.8343	16.4844	1.1348
50.1452	17.5781	1.1719
50.4561	15.5469	1.1021
50.7671	17.0313	1.1535
51.0780	16.4844	1.1348
51.3889	16.0156	1.1186
51.6998	14.0625	1.0482
52.0107	18.8281	1.2128
52.3217	16.8750	1.1482
52.6326	16.8750	1.1482
52.9435	17.7344	1.1771
53.2544	15.6250	1.1049
53.5654	15.1563	1.0882
53.8763	15.4688	1.0993
54.1872	15.7813	1.1104
54.4981	16.9531	1.1509
54.8090	13.3594	1.0216
55.1200	17.8906	1.1822
55.4309	16.3281	1.1294
55.7418	19.2969	1.2278
56.0527	17.4219	1.1667
56.3636	20.2344	1.2573
56.6746	24.6094	1.3866
56.9855	42.4219	1.8205
57.2964	79.2188	2.4878
57.6073	103.6719	2.8459
57.9183	41.1719	1.7935
58.2292	24.7656	1.3910
58.5401	20.0000	1.2500
58.8510	17.8906	1.1822
59.1619	15.8594	1.1131
59.4729	17.5000	1.1693
59.7838	15.2344	1.0910
60.0947	17.1875	1.1588
60.4056	17.1094	1.1561
60.7165	17.2656	1.1614
61.0275	16.9531	1.1509
61.3384	17.8125	1.1797
61.6493	17.1875	1.1588
61.9602	14.2969	1.0569
62.2711	18.1250	1.1900
62.5821	16.0938	1.1213
62.8930	15.8594	1.1131
63.2039	15.8594	1.1131
63.5148	14.9231	1.0714
63.8258	15.5385	1.0933
64.1367	15.4615	1.0906
64.4476	17.0000	1.1435
64.7585	17.6923	1.1666
65.0694	16.5672	1.1119
65.3804	14.6269	1.0448
65.6913	15.5882	1.0706
66.0022	15.2941	1.0605
66.3131	16.1594	1.0821
66.6240	14.5000	1.0177
66.9350	14.7857	1.0277
67.2459	16.1429	1.0738
67.5568	13.8571	0.9949
67.8677	16.8750	1.0825
68.1787	16.5972	1.0736
68.4896	14.2361	0.9943
68.8005	14.7973	0.9999
69.1114	17.4324	1.0853
69.4223	16.1486	1.0446
69.7333	16.4000	1.0456
70.0442	19.4667	1.1392
70.3551	20.2000	1.1605
70.6660	21.3333	1.1926
70.9769	23.2692	1.2213
71.2879	33.3974	1.4632
71.5988	54.6795	1.8722
71.9097	94.0385	2.4552
72.2206	164.3750	3.2052
72.5315	107.3750	2.5905
72.8425	46.8125	1.7105
73.1534	29.3210	1.3453
73.4643	23.0864	1.1938
73.7752	21.7901	1.1598
74.0862	18.8272	1.0780
74.3971	18.7500	1.0564
74.7080	18.9881	1.0631
75.0189	17.9762	1.0344
75.3298	16.8235	0.9948
75.6408	17.1176	1.0035
75.9517	18.5294	1.0440
76.2626	17.2353	1.0069
76.5735	16.1047	0.9676
76.8844	15.5114	0.9388
77.1954	16.8750	0.9792
77.5063	16.8539	0.9731
77.8172	15.3889	0.9246
78.1281	17.1111	0.9750
78.4390	16.5556	0.9590
78.7500	16.1667	0.9477
79.0609	16.5385	0.9533
79.3718	16.5385	0.9533
79.6827	16.2366	0.9343
79.9937	15.9140	0.9250
80.3046	16.4362	0.9350
80.6155	16.2234	0.9289
80.9264	16.1053	0.9207
81.2373	15.7895	0.9116
81.5483	17.0526	0.9474
81.8592	17.6042	0.9575
82.1701	17.3958	0.9519
82.4810	16.3265	0.9127
82.7919	17.6531	0.9490
83.1029	16.6667	0.9175
83.4138	17.8788	0.9502
83.7247	17.4000	0.9327
84.0356	17.9000	0.9460
84.3466	19.4000	0.9849
84.6575	21.0396	1.0206
84.9684	22.5248	1.0560
85.2793	31.3107	1.2329
85.5902	45.4854	1.4859
85.9012	56.3462	1.6459
86.2121	38.9904	1.3691
86.5230	25.6190	1.1045
86.8339	20.6190	0.9909
87.1448	18.4762	0.9380
87.4558	19.1509	0.9504
87.7667	19.5755	0.9609
88.0776	17.7830	0.9159
88.3885	16.3426	0.8698
88.6994	17.2018	0.8883
89.0104	16.8807	0.8800
89.3213	19.0000	0.9293
89.6322	17.7273	0.8977
89.9431	17.9091	0.9022
90.2541	18.3182	0.9125
90.5650	17.1622	0.8792
90.8759	17.7876	0.8872
91.1868	15.9735	0.8407
91.4977	17.6991	0.8850
91.8087	19.3043	0.9161
92.1196	16.9565	0.8586
92.4305	19.8261	0.9284
92.7414	19.4348	0.9192
93.0523	19.3534	0.9133
93.3633	20.1724	0.9325
93.6742	17.7155	0.8738
93.9851	18.9076	0.8913
94.2960	20.2941	0.9234
94.6070	19.0756	0.8953
94.9179	20.5042	0.9282
95.2288	19.3750	0.8985
95.5397	21.7083	0.9511
95.8506	21.7917	0.9529
96.1616	21.8182	0.9495
96.4725	22.8049	0.9628
96.7834	23.5366	0.9781
97.0943	23.5366	0.9781
97.4052	24.4800	0.9895
97.7162	28.5200	1.0681
98.0271	36.2000	1.2033
98.3380	41.0714	1.2766
98.6489	52.3047	1.4294
98.9598	72.3643	1.6748
99.2708	79.3411	1.7536
99.5817	58.8462	1.5044
99.8926	38.3588	1.2100
100.2035	28.6641	1.0460
100.5145	25.8647	0.9861
100.8254	24.7015	0.9601
101.1363	24.6667	0.9558
101.4472	24.7059	0.9531
101.7581	24.5956	0.9509
102.0691	25.4317	0.9565
102.3800	24.6043	0.9408
102.6909	22.9433	0.9020
103.0018	23.7589	0.9179
103.3127	24.7552	0.9304
103.6237	24.6181	0.9246
103.9346	24.6897	0.9227
104.2455	24.5548	0.9170
104.5564	24.3151	0.9125
104.8674	23.7500	0.8957
105.1783	24.9329	0.9147
105.4892	23.2667	0.8807
105.8001	24.7020	0.9044
106.1110	25.4967	0.9188
106.4220	25.2273	0.9050
106.7329	25.2581	0.9026
107.0438	24.6474	0.8888
107.3547	26.5705	0.9228
107.6656	25.7911	0.9034
107.9766	26.3750	0.9079
108.2875	25.9150	0.9203
108.5984	26.1189	0.9556
108.9093	25.4198	0.9850
109.2202	29.0083	1.0948
109.5312	27.1818	1.1115
109.8421	26.5000	1.1511
109.9834	26.5263	1.1816

File: 9_W0.40Ta0.40Ti0.20_HIP1800C_8h_txt.txt
1.544427
20.2968	40.0000	2.1082
20.6077	40.0000	2.1082
20.9186	37.3684	1.9833
21.2296	40.0000	2.0520
21.5405	34.7000	1.8628
21.8514	34.7000	1.8628
22.1623	31.4000	1.7720
22.4732	34.7000	1.8628
22.7842	33.9000	1.8412
23.0951	31.0000	1.7607
23.4060	32.1000	1.7916
23.7169	32.5000	1.8028
24.0278	28.3000	1.6823
24.3388	31.3000	1.7692
24.6497	30.0000	1.7321
24.9606	25.6000	1.6000
25.2715	26.2857	1.5822
25.5824	26.4762	1.5879
25.8934	28.9091	1.6211
26.2043	26.7273	1.5588
26.5152	22.3636	1.4259
26.8261	26.4545	1.5508
27.1371	24.2727	1.4855
27.4480	22.2727	1.4230
27.7589	23.0909	1.4489
28.0698	22.6364	1.4345
28.3807	20.0000	1.3484
28.6917	22.1818	1.4200
29.0026	21.0000	1.3817
29.3135	21.0909	1.3847
29.6244	21.5652	1.3694
29.9353	19.6522	1.3072
30.2463	22.0833	1.3566
30.5572	20.0833	1.2937
30.8681	21.3333	1.3333
31.1790	18.1667	1.2304
31.4900	21.0833	1.3255
31.8009	21.4167	1.3359
32.1118	19.5833	1.2775
32.4227	19.9167	1.2883
32.7336	21.0000	1.3229
33.0446	15.0000	1.1180
33.3555	15.3333	1.1304
33.6664	18.1667	1.2304
33.9773	15.9200	1.1285
34.2882	16.5600	1.1510
34.5992	15.0000	1.0742
34.9101	16.6923	1.1331
35.2210	14.6923	1.0631
35.5319	16.6923	1.1331
35.8428	16.3846	1.1227
36.1538	14.6923	1.0631
36.4647	15.3077	1.0851
36.7756	13.6923	1.0263
37.0865	17.6154	1.1641
37.3975	15.9231	1.1067
37.7084	15.7692	1.1014
38.0193	18.0769	1.1792
38.3302	21.6296	1.2658
38.6411	26.7407	1.4074
38.9521	63.7037	2.1723
39.2630	239.4286	4.1355
39.5739	245.2857	4.1857
39.8848	53.6429	1.9575
40.1957	24.7857	1.3306
40.5067	19.7143	1.1867
40.8176	15.7143	1.0595
41.1285	16.5714	1.0880
41.4394	15.5714	1.0546
41.7504	14.9286	1.0326
42.0613	13.2143	0.9715
42.3722	11.0714	0.8893
42.6831	12.6207	0.9329
42.9940	14.4828	0.9994
43.3050	13.0345	0.9481
43.6159	12.6667	0.9189
43.9268	12.6000	0.9165
44.2377	11.5333	0.8769
44.5486	12.0000	0.8944
44.8596	12.2000	0.9018
45.1705	10.6667	0.8433
45.4814	11.5333	0.8769
45.7923	11.2000	0.8641
46.1032	13.2667	0.9404
46.4142	12.7333	0.9214
46.7251	10.3226	0.8161
47.0360	11.4839	0.8608
47.3469	10.8387	0.8362
47.6579	10.0000	0.7906
47.9688	10.2500	0.8004
48.2797	12.5000	0.8839
48.5906	10.3750	0.8053
48.9015	10.1875	0.7979
49.2125	9.1875	0.7578
49.5234	11.7500	0.8570
49.8343	10.4375	0.8077
50.1452	8.5000	0.7289
50.4561	10.5000	0.8101
50.7671	8.6061	0.7222
51.0780	9.5758	0.7618
51.3889	10.3636	0.7925
51.6998	9.9412	0.7647
52.0107	9.5294	0.7487
52.3217	9.8235	0.7602
52.6326	9.9412	0.7647
52.9435	9.7059	0.7556
53.2544	10.2941	0.7782
53.5654	9.6471	0.7533
53.8763	10.3529	0.7804
54.1872	8.2353	0.6960
54.4981	9.1765	0.7347
54.8090	10.1714	0.7624
55.1200	10.5714	0.7772
55.4309	10.2286	0.7645
55.7418	10.2778	0.7556
56.0527	14.6111	0.9010
56.3636	17.7222	0.9923
56.6746	40.3333	1.4969
56.9855	61.0000	1.8409
57.2964	36.3333	1.4207
57.6073	14.6667	0.9027
57.9183	11.5000	0.7993
58.2292	12.0556	0.8184
58.5401	9.8919	0.7312
58.8510	10.2162	0.7431
59.1619	8.9730	0.6964
59.4729	9.5676	0.7191
59.7838	10.4211	0.7406
60.0947	11.8947	0.7912
60.4056	10.6842	0.7499
60.7165	9.6842	0.7139
61.0275	10.0000	0.7255
61.3384	10.1053	0.7293
61.6493	8.9474	0.6862
61.9602	7.9474	0.6467
62.2711	8.5263	0.6699
62.5821	10.3077	0.7270
62.8930	9.6923	0.7050
63.2039	8.1026	0.6446
63.5148	8.7692	0.6706
63.8258	8.5854	0.6471
64.1367	8.7317	0.6526
64.4476	7.9024	0.6209
64.7585	8.1463	0.6304
65.0694	8.9767	0.6462
65.3804	8.5581	0.6309
65.6913	8.4651	0.6275
66.0022	9.7727	0.6665
66.3131	10.1333	0.6711
66.6240	7.8222	0.5896
66.9350	8.6667	0.6206
67.2459	9.2766	0.6283
67.5568	9.4043	0.6326
67.8677	9.1064	0.6225
68.1787	9.4468	0.6340
68.4896	10.5714	0.6569
68.8005	10.1633	0.6441
69.1114	11.3469	0.6805
69.4223	10.2041	0.6454
69.7333	11.0980	0.6597
70.0442	11.0980	0.6597
70.3551	12.0392	0.6871
70.6660	17.5385	0.8213
70.9769	29.5849	1.0566
71.2879	64.8679	1.5646
71.5988	82.7547	1.7672
71.9097	40.0741	1.2183
72.2206	17.8909	0.8066
72.5315	12.8364	0.6832
72.8425	11.3455	0.6423
73.1534	12.0714	0.6566
73.4643	10.4912	0.6067
73.7752	10.6316	0.6108
74.0862	10.3158	0.6016
74.3971	9.6897	0.5780
74.7080	9.9661	0.5812
75.0189	10.2373	0.5891
75.3298	9.9661	0.5812
75.6408	11.1333	0.6092
75.9517	9.8689	0.5688
76.2626	10.5574	0.5883
76.5735	10.0323	0.5689
76.8844	9.2903	0.5474
77.1954	8.8254	0.5293
77.5063	10.0000	0.5634
77.8172	9.3438	0.5404
78.1281	9.1875	0.5358
78.4390	10.0308	0.5556
78.7500	10.2462	0.5615
79.0609	9.8788	0.5471
79.3718	9.5455	0.5378
79.6827	9.8806	0.5431
79.9937	9.6716	0.5373
80.3046	10.0588	0.5439
80.6155	9.5588	0.5302
80.9264	9.5942	0.5273
81.2373	8.2000	0.4840
81.5483	9.6286	0.5245
81.8592	9.0286	0.5079
82.1701	10.0282	0.5315
82.4810	10.1111	0.5300
82.7919	9.3056	0.5084
83.1029	10.3333	0.5358
83.4138	11.1507	0.5527
83.7247	10.8919	0.5426
84.0356	12.0811	0.5714
84.3466	16.5946	0.6697
84.6575	23.5467	0.7924
84.9684	27.9211	0.8572
85.2793	20.8421	0.7406
85.5902	14.0789	0.6087
85.9012	11.3333	0.5391
86.2121	9.4615	0.4925
86.5230	10.5385	0.5198
86.8339	10.9231	0.5292
87.1448	11.1750	0.5286
87.4558	10.2500	0.5062
87.7667	11.4750	0.5356
88.0776	11.4750	0.5356
88.3885	11.2439	0.5237
88.6994	11.8293	0.5371
89.0104	11.3415	0.5259
89.3213	12.0488	0.5421
89.6322	11.0476	0.5129
89.9431	11.6190	0.5260
90.2541	11.6667	0.5270
90.5650	11.9048	0.5324
90.8759	12.0930	0.5303
91.1868	12.4186	0.5374
91.4977	12.8140	0.5459
91.8087	12.2727	0.5281
92.1196	12.9773	0.5431
92.4305	13.1136	0.5459
92.7414	12.8409	0.5402
93.0523	13.1556	0.5407
93.3633	13.6222	0.5502
93.6742	13.2000	0.5416
93.9851	14.9556	0.5765
94.2960	14.2609	0.5568
94.6070	14.7609	0.5665
94.9179	16.3043	0.5954
95.2288	15.5652	0.5817
95.5397	16.2553	0.5881
95.8506	16.0213	0.5838
96.1616	16.9362	0.6003
96.4725	18.3789	0.6220
96.7834	19.8333	0.6428
97.0943	22.7083	0.6878
97.4052	27.9375	0.7629
97.7162	35.5258	0.8559
98.0271	43.1837	0.9388
98.3380	35.2857	0.8486
98.6489	24.9592	0.7137
98.9598	19.7143	0.6343
99.2708	18.3000	0.6050
99.5817	16.8800	0.5810
99.8926	17.0400	0.5838
100.2035	17.6600	0.5943
100.5145	18.6863	0.6053
100.8254	17.5294	0.5863
101.1363	17.0196	0.5777
101.4472	17.3529	0.5833
101.7581	17.3922	0.5840
102.0691	16.7692	0.5679
102.3800	16.8269	0.5689
102.6909	18.0769	0.5896
103.0018	17.8654	0.5861
103.3127	16.9714	0.5686
103.6237	17.9811	0.5825
103.9346	17.1698	0.5692
104.2455	17.5094	0.5748
104.5564	17.7736	0.5791
104.8674	16.8519	0.5586
105.1783	17.6852	0.5723
105.4892	17.3333	0.5666
105.8001	17.1852	0.5641
106.1110	17.6697	0.5694
106.4220	17.4909	0.5639
106.7329	18.8182	0.5849
107.0438	17.6182	0.5660
107.3547	17.1455	0.5583
107.6656	17.3694	0.5594
107.9766	18.0357	0.5675
108.2875	18.1964	0.5700
108.5984	16.7321	0.5466
108.9093	17.4808	0.5798
109.2202	17.0426	0.6022
109.5312	18.4578	0.6669
109.8421	17.2500	0.6922
109.9834	17.4627	0.7220

File: 9_W0.40Ta0.40Ti0.20_HIP1800C_10h_fast_cooling.xye
1.540593
20.2968	38.3333	3.2632
20.6077	36.9444	3.2035
20.9186	43.6111	3.4805
21.2296	32.7778	3.0174
21.5405	35.0000	2.9580
21.8514	35.5000	2.9791
22.1623	31.7500	2.8174
22.4732	30.2500	2.7500
22.7842	27.7500	2.6339
23.0951	29.7500	2.7272
23.4060	29.5000	2.7157
23.7169	31.2500	2.7951
24.0278	32.7500	2.8614
24.3388	25.7500	2.5372
24.6497	26.0000	2.5495
24.9606	20.2500	2.2500
25.2715	21.9048	2.2837
25.5824	24.2857	2.4046
25.8934	19.3182	2.0954
26.2043	23.4091	2.3066
26.5152	25.4545	2.4052
26.8261	25.0000	2.3837
27.1371	25.2273	2.3945
27.4480	22.2727	2.2499
27.7589	19.7727	2.1199
28.0698	22.7273	2.2727
28.3807	24.3182	2.3509
28.6917	19.5455	2.1076
29.0026	18.4091	2.0455
29.3135	16.5909	1.9418
29.6244	16.8182	1.9551
29.9353	19.3182	2.0954
30.2463	20.0000	2.0851
30.5572	19.1304	2.0393
30.8681	22.3913	2.2063
31.1790	19.5652	2.0624
31.4900	20.6522	2.1189
31.8009	16.5217	1.8952
32.1118	16.5217	1.8952
32.4227	15.6522	1.8446
32.7336	19.7826	2.0738
33.0446	14.5652	1.7794
33.3555	13.9130	1.7391
33.6664	15.6522	1.8446
33.9773	16.6000	1.8221
34.2882	14.0000	1.6733
34.5992	17.5000	1.8345
34.9101	14.2308	1.6543
35.2210	13.6538	1.6204
35.5319	10.7692	1.4391
35.8428	12.3077	1.5385
36.1538	13.6538	1.6204
36.4647	16.1538	1.7625
36.7756	15.1923	1.7093
37.0865	14.6154	1.6765
37.3975	14.6154	1.6765
37.7084	15.3846	1.7201
38.0193	14.2308	1.6543
38.3302	20.9259	1.9685
38.6411	20.7407	1.9598
38.9521	42.9630	2.8207
39.2630	132.7778	4.9587
39.5739	296.1111	7.4051
39.8848	81.6667	3.8889
40.1957	30.3704	2.3715
40.5067	20.3704	1.9422
40.8176	16.2963	1.7372
41.1285	17.2222	1.7859
41.4394	14.0741	1.6144
41.7504	14.2593	1.6250
42.0613	13.3333	1.5713
42.3722	13.7037	1.5930
42.6831	9.1071	1.2753
42.9940	14.6429	1.6170
43.3050	14.1071	1.5872
43.6159	11.0000	1.3540
43.9268	9.5000	1.2583
44.2377	12.6667	1.4530
44.5486	10.0000	1.2910
44.8596	10.8333	1.3437
45.1705	8.1667	1.1667
45.4814	10.0000	1.2910
45.7923	9.1667	1.2360
46.1032	13.0000	1.4720
46.4142	12.0000	1.4142
46.7251	9.6774	1.2493
47.0360	7.7419	1.1175
47.3469	10.4839	1.3004
47.6579	8.1250	1.1267
47.9688	10.4688	1.2790
48.2797	8.2813	1.1375
48.5906	8.4375	1.1482
48.9015	7.1875	1.0597
49.2125	8.9063	1.1797
49.5234	8.4375	1.1482
49.8343	10.6250	1.2885
50.1452	7.5000	1.0825
50.4561	9.2188	1.2002
50.7671	9.5313	1.2204
51.0780	9.2188	1.2002
51.3889	9.2188	1.2002
51.6998	8.0882	1.0906
52.0107	10.2941	1.2304
52.3217	7.6471	1.0605
52.6326	10.8824	1.2650
52.9435	7.7941	1.0706
53.2544	7.3529	1.0399
53.5654	9.5588	1.1856
53.8763	6.9118	1.0082
54.1872	7.5000	1.0502
54.4981	6.7647	0.9974
54.8090	9.2857	1.1518
55.1200	9.5714	1.1693
55.4309	8.8571	1.1249
55.7418	8.4722	1.0848
56.0527	10.6944	1.2187
56.3636	15.2778	1.4567
56.6746	28.4722	1.9886
56.9855	55.9722	2.7882
57.2964	36.1111	2.2395
57.6073	15.4167	1.4633
57.9183	10.6944	1.2187
58.2292	8.4722	1.0848
58.5401	7.7027	1.0202
58.8510	6.7568	0.9555
59.1619	6.8919	0.9651
59.4729	6.8919	0.9651
59.7838	6.4865	0.9362
60.0947	5.9459	0.8964
60.4056	6.8919	0.9651
60.7165	7.2973	0.9930
61.0275	5.9459	0.8964
61.3384	7.1622	0.9838
61.6493	7.8378	1.0292
61.9602	7.2973	0.9930
62.2711	6.7568	0.9555
62.5821	6.2821	0.8974
62.8930	6.1538	0.8882
63.2039	6.4103	0.9065
63.5148	6.1538	0.8882
63.8258	7.1250	0.9437
64.1367	6.5000	0.9014
64.4476	7.0000	0.9354
64.7585	7.0000	0.9354
65.0694	7.1429	0.9221
65.3804	7.2619	0.9298
65.6913	6.3095	0.8667
66.0022	6.1364	0.8351
66.3131	5.7778	0.8012
66.6240	6.8889	0.8749
66.9350	6.1111	0.8240
67.2459	5.6383	0.7745
67.5568	7.8723	0.9151
67.8677	4.8936	0.7215
68.1787	5.8511	0.7890
68.4896	7.1429	0.8537
68.8005	6.9388	0.8415
69.1114	6.4286	0.8099
69.4223	6.6327	0.8227
69.7333	8.8000	0.9381
70.0442	8.3000	0.9110
70.3551	8.4000	0.9165
70.6660	12.5000	1.0963
70.9769	21.5385	1.4391
71.2879	41.9231	2.0078
71.5988	76.7308	2.7162
71.9097	53.9815	2.2357
72.2206	32.0909	1.7080
72.5315	14.5455	1.1499
72.8425	7.3636	0.8182
73.1534	6.6364	0.7767
73.4643	7.8947	0.8322
73.7752	7.3684	0.8040
74.0862	5.9649	0.7234
74.3971	5.9649	0.7234
74.7080	5.9322	0.7090
75.0189	6.1017	0.7191
75.3298	7.3729	0.7905
75.6408	7.1667	0.7728
75.9517	6.6667	0.7454
76.2626	6.1667	0.7169
76.5735	5.4839	0.6650
76.8844	4.5968	0.6089
77.1954	5.4839	0.6650
77.5063	6.8548	0.7435
77.8172	5.4688	0.6536
78.1281	5.4688	0.6536
78.4390	7.2308	0.7458
78.7500	4.6154	0.5958
79.0609	7.0000	0.7338
79.3718	5.6154	0.6572
79.6827	5.0746	0.6154
79.9937	5.9701	0.6675
80.3046	5.6618	0.6452
80.6155	6.3971	0.6858
80.9264	6.2319	0.6720
81.2373	6.0714	0.6585
81.5483	6.2143	0.6662
81.8592	5.9286	0.6507
82.1701	5.8571	0.6468
82.4810	6.2500	0.6588
82.7919	5.6250	0.6250
83.1029	6.7361	0.6839
83.4138	6.9863	0.6917
83.7247	8.5135	0.7584
84.0356	8.2432	0.7463
84.3466	11.0811	0.8653
84.6575	20.2000	1.1605
84.9684	22.2667	1.2184
85.2793	16.8000	1.0583
85.5902	11.4667	0.8743
85.9012	8.2051	0.7252
86.2121	6.3462	0.6378
86.5230	5.9615	0.6182
86.8339	6.8590	0.6631
87.1448	5.4375	0.5830
87.4558	6.3125	0.6281
87.7667	7.1250	0.6673
88.0776	6.1875	0.6219
88.3885	7.9012	0.6984
88.6994	7.1605	0.6648
89.0104	6.0494	0.6111
89.3213	6.4198	0.6295
89.6322	6.7857	0.6355
89.9431	5.8333	0.5893
90.2541	6.3095	0.6128
90.5650	6.7262	0.6327
90.8759	6.5294	0.6197
91.1868	7.2353	0.6524
91.4977	7.0588	0.6444
91.8087	6.0227	0.5850
92.1196	7.2727	0.6428
92.4305	7.6705	0.6602
92.7414	6.5909	0.6120
93.0523	7.5556	0.6479
93.3633	7.6111	0.6503
93.6742	7.0556	0.6261
93.9851	8.1111	0.6713
94.2960	8.2418	0.6729
94.6070	8.9560	0.7015
94.9179	7.9121	0.6593
95.2288	8.6813	0.6906
95.5397	7.9255	0.6493
95.8506	9.1489	0.6976
96.1616	9.7340	0.7196
96.4725	10.7895	0.7536
96.7834	11.7895	0.7877
97.0943	14.3158	0.8680
97.4052	18.5789	0.9889
97.7162	29.5313	1.2402
98.0271	36.6327	1.3671
98.3380	32.8061	1.2937
98.6489	24.7959	1.1248
98.9598	17.2959	0.9394
99.2708	12.9500	0.8047
99.5817	12.4500	0.7890
99.8926	12.2000	0.7810
100.2035	10.0500	0.7089
100.5145	12.2277	0.7780
100.8254	11.0396	0.7393
101.1363	10.8416	0.7326
101.4472	11.5347	0.7557
101.7581	10.8416	0.7326
102.0691	11.2981	0.7370
102.3800	10.3365	0.7049
102.6909	12.3077	0.7692
103.0018	11.2019	0.7339
103.3127	12.8095	0.7810
103.6237	12.4762	0.7708
103.9346	11.5714	0.7423
104.2455	12.3333	0.7664
104.5564	13.5714	0.8039
104.8674	12.7778	0.7691
105.1783	12.2222	0.7522
105.4892	12.0370	0.7465
105.8001	14.1204	0.8085
106.1110	13.2569	0.7798
106.4220	13.4545	0.7820
106.7329	13.4545	0.7820
107.0438	12.0000	0.7385
107.3547	13.0000	0.7687
107.6656	12.3182	0.7483
107.9766	12.5676	0.7524
108.2875	13.6937	0.7854
108.5984	12.5225	0.7511
108.9093	14.4712	0.8341
109.2202	13.8830	0.8593
109.5312	13.3735	0.8976
109.8421	13.2639	0.9597
109.9834	13.2090	0.9928