Folder: 2025-Tatiana-MEPAs-FastCooling/XRD/Homogenization

Note: README.md
# 2025-Tatiana-MEPAs-FastCooling
Initial data repository for Tania Efremenkova's paper on facile fabrication of BCC MPEAs

File: 4_WTaV_HIP1800C_8h_txt.txt
1.544427
20.2968	38.1111	2.0578
20.6077	37.2222	2.0337
20.9186	36.1053	1.9495
21.2296	35.8947	1.9438
21.5405	38.4000	1.9596
21.8514	34.4000	1.8547
22.1623	33.5000	1.8303
22.4732	33.2000	1.8221
22.7842	34.4000	1.8547
23.0951	36.2000	1.9026
23.4060	34.0000	1.8439
23.7169	27.5000	1.6583
24.0278	30.1000	1.7349
24.3388	28.7000	1.6941
24.6497	26.1000	1.6155
24.9606	29.2000	1.7088
25.2715	29.7143	1.6822
25.5824	27.6190	1.6218
25.8934	27.7273	1.5877
26.2043	24.8182	1.5021
26.5152	26.8182	1.5614
26.8261	24.7273	1.4993
27.1371	22.2727	1.4230
27.4480	26.6364	1.5561
27.7589	25.0909	1.5103
28.0698	23.2727	1.4545
28.3807	20.9091	1.3787
28.6917	22.0909	1.4171
29.0026	23.4545	1.4602
29.3135	21.6364	1.4025
29.6244	21.9130	1.3804
29.9353	23.0435	1.4155
30.2463	19.3333	1.2693
30.5572	20.4167	1.3044
30.8681	19.6667	1.2802
31.1790	20.0000	1.2910
31.4900	20.7500	1.3150
31.8009	19.0833	1.2611
32.1118	20.5000	1.3070
32.4227	20.1667	1.2964
32.7336	18.5000	1.2416
33.0446	18.3333	1.2360
33.3555	15.6667	1.1426
33.6664	16.6667	1.1785
33.9773	17.9200	1.1973
34.2882	15.5200	1.1143
34.5992	19.1538	1.2138
34.9101	27.2308	1.4473
35.2210	15.8462	1.1041
35.5319	17.0000	1.1435
35.8428	16.1538	1.1147
36.1538	17.4615	1.1590
36.4647	14.4615	1.0547
36.7756	13.7692	1.0292
37.0865	14.5385	1.0575
37.3975	14.7692	1.0659
37.7084	13.8462	1.0320
38.0193	18.3077	1.1867
38.3302	16.1481	1.0937
38.6411	15.3333	1.0657
38.9521	16.0000	1.0887
39.2630	23.3571	1.2917
39.5739	44.0000	1.7728
39.8848	122.9286	2.9632
40.1957	178.5714	3.5714
40.5067	44.9286	1.7914
40.8176	19.5714	1.1824
41.1285	16.1429	1.0738
41.4394	12.2143	0.9340
41.7504	13.0714	0.9663
42.0613	13.4286	0.9794
42.3722	14.1429	1.0051
42.6831	13.1724	0.9531
42.9940	11.5862	0.8939
43.3050	10.8966	0.8669
43.6159	10.7333	0.8459
43.9268	11.0667	0.8589
44.2377	10.3333	0.8300
44.5486	9.8667	0.8110
44.8596	10.4667	0.8353
45.1705	10.7333	0.8459
45.4814	8.9333	0.7717
45.7923	9.5333	0.7972
46.1032	9.6667	0.8028
46.4142	9.3333	0.7888
46.7251	11.4839	0.8608
47.0360	8.4516	0.7384
47.3469	7.5484	0.6978
47.6579	10.0000	0.7906
47.9688	11.2500	0.8385
48.2797	9.3125	0.7629
48.5906	9.3125	0.7629
48.9015	7.9375	0.7043
49.2125	10.0000	0.7906
49.5234	9.3125	0.7629
49.8343	8.6250	0.7342
50.1452	8.4375	0.7262
50.4561	7.7500	0.6960
50.7671	7.3333	0.6667
51.0780	7.8182	0.6884
51.3889	9.1515	0.7447
51.6998	7.2353	0.6524
52.0107	8.0000	0.6860
52.3217	9.5882	0.7510
52.6326	13.3529	0.8863
52.9435	8.7647	0.7180
53.2544	8.1765	0.6935
53.5654	6.5294	0.6197
53.8763	7.2941	0.6550
54.1872	7.8235	0.6784
54.4981	7.0000	0.6417
54.8090	8.7429	0.7068
55.1200	8.6857	0.7045
55.4309	6.5143	0.6101
55.7418	7.2222	0.6334
56.0527	6.8889	0.6186
56.3636	7.6111	0.6503
56.6746	7.8889	0.6620
56.9855	10.0556	0.7474
57.2964	14.6111	0.9010
57.6073	21.1111	1.0830
57.9183	31.4444	1.3217
58.2292	26.0000	1.2019
58.5401	11.6216	0.7926
58.8510	8.9730	0.6964
59.1619	9.0270	0.6985
59.4729	7.8919	0.6531
59.7838	7.1053	0.6115
60.0947	7.7368	0.6381
60.4056	8.5789	0.6720
60.7165	6.7368	0.5955
61.0275	6.6316	0.5908
61.3384	6.9474	0.6047
61.6493	6.2632	0.5741
61.9602	7.3158	0.6205
62.2711	7.9474	0.6467
62.5821	6.9744	0.5980
62.8930	7.4359	0.6175
63.2039	6.4103	0.5734
63.5148	6.4103	0.5734
63.8258	6.2439	0.5519
64.1367	6.4390	0.5604
64.4476	7.9024	0.6209
64.7585	6.4390	0.5604
65.0694	6.5581	0.5523
65.3804	7.3023	0.5828
65.6913	7.0233	0.5715
66.0022	5.5455	0.5021
66.3131	6.0000	0.5164
66.6240	8.1333	0.6012
66.9350	7.9556	0.5946
67.2459	9.4043	0.6326
67.5568	5.5319	0.4852
67.8677	6.7660	0.5366
68.1787	6.3830	0.5212
68.4896	5.8776	0.4898
68.8005	6.7755	0.5259
69.1114	5.7959	0.4864
69.4223	6.8163	0.5275
69.7333	6.0784	0.4882
70.0442	6.2745	0.4960
70.3551	7.6471	0.5476
70.6660	7.1154	0.5231
70.9769	7.8868	0.5455
71.2879	8.3019	0.5597
71.5988	11.0943	0.6470
71.9097	14.1481	0.7239
72.2206	20.9455	0.8727
72.5315	28.8000	1.0234
72.8425	45.8545	1.2913
73.1534	35.0357	1.1186
73.4643	16.5965	0.7631
73.7752	9.6140	0.5808
74.0862	8.4912	0.5458
74.3971	7.5172	0.5091
74.7080	7.1186	0.4912
75.0189	7.4237	0.5016
75.3298	6.9153	0.4842
75.6408	6.6333	0.4702
75.9517	6.2623	0.4531
76.2626	6.1311	0.4484
76.5735	7.2581	0.4839
76.8844	6.9677	0.4741
77.1954	7.0794	0.4741
77.5063	6.4762	0.4534
77.8172	6.6875	0.4571
78.1281	7.0938	0.4708
78.4390	6.0615	0.4319
78.7500	6.3077	0.4405
79.0609	6.9394	0.4586
79.3718	7.0606	0.4626
79.6827	5.9701	0.4222
79.9937	7.1343	0.4615
80.3046	7.0882	0.4566
80.6155	7.3235	0.4641
80.9264	6.7826	0.4434
81.2373	6.1429	0.4189
81.5483	6.9429	0.4454
81.8592	6.5714	0.4333
82.1701	6.9296	0.4418
82.4810	7.5000	0.4564
82.7919	7.5278	0.4573
83.1029	6.2222	0.4157
83.4138	8.0548	0.4698
83.7247	8.2432	0.4720
84.0356	6.7027	0.4256
84.3466	7.7568	0.4579
84.6575	8.0800	0.4642
84.9684	8.3421	0.4685
85.2793	8.7105	0.4788
85.5902	9.5263	0.5007
85.9012	12.2051	0.5594
86.2121	14.0769	0.6008
86.5230	21.1538	0.7365
86.8339	22.4103	0.7580
87.1448	13.6250	0.5836
87.4558	10.1250	0.5031
87.7667	10.1250	0.5031
88.0776	10.7750	0.5190
88.3885	9.4878	0.4811
88.6994	8.9756	0.4679
89.0104	9.6098	0.4841
89.3213	10.0000	0.4939
89.6322	9.5476	0.4768
89.9431	10.6429	0.5034
90.2541	10.6190	0.5028
90.5650	10.5000	0.5000
90.8759	10.1860	0.4867
91.1868	11.5349	0.5179
91.4977	10.9302	0.5042
91.8087	12.3864	0.5306
92.1196	12.3864	0.5306
92.4305	12.6591	0.5364
92.7414	12.0455	0.5232
93.0523	12.4444	0.5259
93.3633	12.0000	0.5164
93.6742	11.8667	0.5135
93.9851	12.7778	0.5329
94.2960	11.6522	0.5033
94.6070	13.0870	0.5334
94.9179	12.6739	0.5249
95.2288	12.3043	0.5172
95.5397	13.8298	0.5424
95.8506	12.5532	0.5168
96.1616	13.3404	0.5328
96.4725	14.0632	0.5441
96.7834	14.3542	0.5469
97.0943	15.2500	0.5637
97.4052	14.1667	0.5433
97.7162	14.1031	0.5392
98.0271	13.9388	0.5334
98.3380	15.5102	0.5626
98.6489	15.6735	0.5656
98.9598	16.4286	0.5790
99.2708	20.0800	0.6337
99.5817	21.6800	0.6585
99.8926	28.7000	0.7576
100.2035	31.0200	0.7877
100.5145	27.1373	0.7295
100.8254	21.0000	0.6417
101.1363	19.3725	0.6163
101.4472	15.9216	0.5587
101.7581	15.2157	0.5462
102.0691	14.8077	0.5336
102.3800	15.1154	0.5391
102.6909	14.2885	0.5242
103.0018	14.6731	0.5312
103.3127	14.9143	0.5330
103.6237	15.0377	0.5327
103.9346	14.7358	0.5273
104.2455	14.8491	0.5293
104.5564	15.3208	0.5377
104.8674	13.8333	0.5061
105.1783	14.4630	0.5175
105.4892	14.6852	0.5215
105.8001	13.9815	0.5088
106.1110	13.9083	0.5052
106.4220	14.0909	0.5062
106.7329	14.2182	0.5084
107.0438	13.8545	0.5019
107.3547	14.8000	0.5187
107.6656	15.2252	0.5238
107.9766	14.5893	0.5104
108.2875	15.0536	0.5185
108.5984	14.8214	0.5145
108.9093	14.3462	0.5253
109.2202	14.9149	0.5633
109.5312	14.5542	0.5922
109.8421	14.8611	0.6425
109.9834	14.9254	0.6675

File: 4_WTaV_HT1800C_8h.xye
1.540593
20.2968	36.0000	4.2426
20.6077	39.5000	4.4441
20.9186	39.0000	4.4159
21.2296	32.0000	4.0000
21.5405	35.0000	4.1833
21.8514	36.5000	4.2720
22.1623	35.0000	4.1833
22.4732	34.0000	4.1231
22.7842	35.5000	4.2131
23.0951	26.5000	3.6401
23.4060	30.5000	3.9051
23.7169	28.5000	3.7749
24.0278	29.0000	3.8079
24.3388	29.5000	3.8406
24.6497	27.0000	3.6742
24.9606	23.5000	3.4278
25.2715	17.5000	2.9580
25.5824	15.5000	2.7839
25.8934	26.0000	3.6056
26.2043	24.0000	3.4641
26.5152	20.0000	3.1623
26.8261	19.5000	3.1225
27.1371	22.5000	3.3541
27.4480	20.9091	3.0829
27.7589	23.1818	3.2461
28.0698	21.8182	3.1492
28.3807	24.5455	3.3402
28.6917	24.5455	3.3402
29.0026	18.6364	2.9105
29.3135	20.0000	3.0151
29.6244	21.8182	3.1492
29.9353	17.2727	2.8020
30.2463	20.4545	3.0492
30.5572	20.9091	3.0829
30.8681	19.0909	2.9458
31.1790	15.9091	2.6891
31.4900	16.8182	2.7649
31.8009	13.1818	2.4478
32.1118	14.0909	2.5308
32.4227	12.7273	2.4052
32.7336	18.6364	2.9105
33.0446	15.9091	2.6891
33.3555	15.9091	2.6891
33.6664	15.9091	2.6891
33.9773	11.3636	2.2727
34.2882	14.0909	2.5308
34.5992	15.4545	2.6504
34.9101	19.5455	2.9807
35.2210	16.8182	2.7649
35.5319	18.1818	2.8748
35.8428	16.3636	2.7273
36.1538	15.7692	2.4627
36.4647	13.0769	2.2427
36.7756	8.8462	1.8446
37.0865	9.6154	1.9231
37.3975	11.1538	2.0712
37.7084	14.6154	2.3709
38.0193	19.2308	2.7196
38.3302	18.4615	2.6647
38.6411	8.0769	1.7625
38.9521	11.1538	2.0712
39.2630	13.8462	2.3077
39.5739	19.2308	2.7196
39.8848	56.5385	4.6632
40.1957	133.0769	7.1543
40.5067	21.9231	2.9038
40.8176	18.4615	2.6647
41.1285	12.3077	2.1757
41.4394	14.6154	2.3709
41.7504	13.8462	2.3077
42.0613	13.0769	2.2427
42.3722	8.4615	1.8040
42.6831	9.6154	1.9231
42.9940	10.0000	1.9612
43.3050	11.1538	2.0712
43.6159	14.6154	2.3709
43.9268	8.0769	1.7625
44.2377	9.2308	1.8842
44.5486	8.0769	1.7625
44.8596	8.6667	1.6997
45.1705	9.6667	1.7951
45.4814	6.8750	1.4658
45.7923	9.3750	1.7116
46.1032	6.8750	1.4658
46.4142	5.9375	1.3622
46.7251	8.1250	1.5934
47.0360	9.3750	1.7116
47.3469	8.1250	1.5934
47.6579	8.1250	1.5934
47.9688	6.2500	1.3975
48.2797	9.3750	1.7116
48.5906	8.1250	1.5934
48.9015	7.1875	1.4987
49.2125	7.8125	1.5625
49.5234	7.5000	1.5309
49.8343	10.6250	1.8222
50.1452	8.7500	1.6536
50.4561	6.8750	1.4658
50.7671	9.3750	1.7116
51.0780	9.3750	1.7116
51.3889	7.1875	1.4987
51.6998	7.1875	1.4987
52.0107	5.9375	1.3622
52.3217	9.0625	1.6829
52.6326	10.5882	1.7647
52.9435	6.7647	1.4105
53.2544	6.7647	1.4105
53.5654	8.0556	1.4959
53.8763	7.5000	1.4434
54.1872	7.2222	1.4164
54.4981	9.7222	1.6434
54.8090	7.5000	1.4434
55.1200	9.7222	1.6434
55.4309	7.5000	1.4434
55.7418	7.5000	1.4434
56.0527	8.3333	1.5215
56.3636	8.6111	1.5466
56.6746	11.3889	1.7786
56.9855	7.7778	1.4699
57.2964	11.3889	1.7786
57.6073	12.7778	1.8840
57.9183	56.6667	3.9675
58.2292	13.8889	1.9642
58.5401	11.3889	1.7786
58.8510	9.1667	1.5957
59.1619	8.8889	1.5713
59.4729	9.4444	1.6197
59.7838	8.8889	1.5713
60.0947	13.3333	1.9245
60.4056	12.2222	1.8426
60.7165	8.3333	1.5215
61.0275	10.0000	1.6667
61.3384	9.7222	1.6434
61.6493	12.2500	1.7500
61.9602	8.2500	1.4361
62.2711	10.7500	1.6394
62.5821	10.0000	1.5811
62.8930	10.5000	1.6202
63.2039	6.5000	1.2748
63.5148	10.0000	1.5811
63.8258	11.7500	1.7139
64.1367	9.7500	1.5612
64.4476	10.7143	1.5972
64.7585	13.0952	1.7658
65.0694	10.2381	1.5613
65.3804	12.1429	1.7003
65.6913	10.0000	1.5076
66.0022	9.7727	1.4903
66.3131	11.8182	1.6389
66.6240	13.4091	1.7457
66.9350	13.1818	1.7309
67.2459	9.5455	1.4729
67.5568	12.5000	1.6855
67.8677	14.3478	1.7661
68.1787	11.3043	1.5676
68.4896	11.3043	1.5676
68.8005	12.6087	1.6556
69.1114	10.8000	1.4697
69.4223	9.0000	1.3416
69.7333	12.0000	1.5492
70.0442	11.4000	1.5100
70.3551	13.6538	1.6204
70.6660	11.5385	1.4896
70.9769	10.9615	1.4519
71.2879	14.8148	1.6563
71.5988	12.5926	1.5271
71.9097	15.7407	1.7073
72.2206	24.4444	2.1276
72.5315	47.9630	2.9803
72.8425	71.8519	3.6477
73.1534	22.5926	2.0454
73.4643	17.7778	1.8144
73.7752	14.1071	1.5872
74.0862	12.6786	1.5047
74.3971	12.8571	1.5152
74.7080	12.3214	1.4833
75.0189	8.9286	1.2627
75.3298	10.5000	1.3229
75.6408	11.0000	1.3540
75.9517	8.8710	1.1962
76.2626	11.2903	1.3495
76.5735	10.3226	1.2903
76.8844	10.0000	1.2700
77.1954	10.3226	1.2903
77.5063	10.3226	1.2903
77.8172	14.0625	1.4823
78.1281	12.6563	1.4063
78.4390	11.2500	1.3258
78.7500	11.8750	1.3622
79.0609	10.9375	1.3073
79.3718	13.9063	1.4741
79.6827	11.8750	1.3622
79.9937	12.5000	1.3975
80.3046	11.4706	1.2988
80.6155	11.8571	1.3015
80.9264	10.8571	1.2454
81.2373	12.0000	1.3093
81.5483	13.4286	1.3851
81.8592	10.0000	1.1952
82.1701	13.0000	1.3628
82.4810	9.4286	1.1606
82.7919	11.3889	1.2577
83.1029	10.0000	1.1625
83.4138	12.7027	1.3102
83.7247	13.2432	1.3378
84.0356	11.6216	1.2532
84.3466	10.6757	1.2011
84.6575	9.3243	1.1225
84.9684	11.6216	1.2532
85.2793	13.9189	1.3715
85.5902	13.2051	1.3011
85.9012	15.6410	1.4161
86.2121	29.6154	1.9485
86.5230	26.1538	1.8311
86.8339	15.5128	1.4103
87.1448	12.9487	1.2884
87.4558	12.4359	1.2627
87.7667	11.7500	1.2119
88.0776	12.8750	1.2686
88.3885	13.2500	1.2870
88.6994	12.2500	1.2374
89.0104	8.6250	1.0383
89.3213	11.1250	1.1792
89.6322	10.3750	1.1388
89.9431	9.1250	1.0680
90.2541	10.2381	1.1040
90.5650	12.2619	1.2082
90.8759	11.3095	1.1603
91.1868	12.0238	1.1964
91.4977	9.2857	1.0514
91.8087	11.0714	1.1481
92.1196	10.5952	1.1231
92.4305	11.7778	1.1440
92.7414	10.7778	1.0943
93.0523	11.5556	1.1331
93.3633	10.6667	1.0887
93.6742	12.1111	1.1600
93.9851	10.2222	1.0657
94.2960	11.2222	1.1167
94.6070	10.7778	1.0943
94.9179	11.0638	1.0849
95.2288	10.2128	1.0423
95.5397	12.5532	1.1556
95.8506	10.4255	1.0531
96.1616	11.7021	1.1158
96.4725	11.1702	1.0901
96.7834	10.4255	1.0531
97.0943	13.5106	1.1989
97.4052	9.6939	0.9946
97.7162	12.1429	1.1131
98.0271	14.0816	1.1987
98.3380	14.2857	1.2074
98.6489	12.5510	1.1317
98.9598	12.3469	1.1224
99.2708	16.5306	1.2988
99.5817	35.4082	1.9008
99.8926	42.2000	2.0543
100.2035	28.4000	1.6852
100.5145	16.3000	1.2767
100.8254	15.2000	1.2329
101.1363	14.0000	1.1832
101.4472	14.1000	1.1874
101.7581	12.7000	1.1269
102.0691	17.2000	1.3115
102.3800	13.2000	1.1489
102.6909	12.7885	1.1089
103.0018	12.8846	1.1131
103.3127	12.3077	1.0879
103.6237	13.0769	1.1213
103.9346	13.8462	1.1538
104.2455	14.2308	1.1698
104.5564	12.3077	1.0879
104.8674	12.8846	1.1131
105.1783	12.6923	1.1047
105.4892	9.4444	0.9351
105.8001	9.6364	0.9360
106.1110	10.6364	0.9833
106.4220	12.0000	1.0445
106.7329	12.5455	1.0679
107.0438	13.6364	1.1134
107.3547	12.0909	1.0484
107.6656	12.7273	1.0757
107.9766	11.3636	1.0164
108.2875	12.8182	1.0795
108.5984	14.1228	1.1130
108.9093	13.9423	1.1578
109.2202	12.0213	1.1309
109.5312	11.9048	1.1905
109.8421	14.1667	1.4027
109.9834	12.2059	1.3398

File: 7_W0.35Ta0.40Cr0.25_HIP1800C_8h.xye
1.544427
20.2968	37.8889	2.0518
20.6077	35.4444	1.9845
20.9186	39.1579	2.0302
21.2296	38.8421	2.0220
21.5405	34.2000	1.8493
21.8514	35.9000	1.8947
22.1623	34.0000	1.8439
22.4732	34.0000	1.8439
22.7842	34.6000	1.8601
23.0951	30.1000	1.7349
23.4060	29.4000	1.7146
23.7169	29.7000	1.7234
24.0278	28.0000	1.6733
24.3388	27.1000	1.6462
24.6497	27.8000	1.6673
24.9606	26.6000	1.6310
25.2715	25.5238	1.5591
25.5824	25.2381	1.5504
25.8934	25.0000	1.5076
26.2043	24.0000	1.4771
26.5152	24.6364	1.4966
26.8261	23.0909	1.4489
27.1371	25.6364	1.5266
27.4480	19.8182	1.3423
27.7589	23.8182	1.4715
28.0698	21.7273	1.4054
28.3807	19.3636	1.3268
28.6917	22.9091	1.4431
29.0026	22.6364	1.4345
29.3135	20.0000	1.3484
29.6244	20.2609	1.3273
29.9353	19.0435	1.2868
30.2463	19.8333	1.2856
30.5572	20.8333	1.3176
30.8681	16.6667	1.1785
31.1790	17.2500	1.1990
31.4900	16.8333	1.1844
31.8009	17.5833	1.2105
32.1118	17.7500	1.2162
32.4227	19.0000	1.2583
32.7336	15.9167	1.1517
33.0446	16.7500	1.1815
33.3555	16.6667	1.1785
33.6664	15.8333	1.1487
33.9773	18.3200	1.2106
34.2882	17.1200	1.1703
34.5992	14.7692	1.0659
34.9101	14.3077	1.0491
35.2210	13.5385	1.0205
35.5319	14.0000	1.0377
35.8428	16.6923	1.1331
36.1538	20.2308	1.2475
36.4647	17.6154	1.1641
36.7756	14.9231	1.0714
37.0865	14.0769	1.0406
37.3975	15.6923	1.0987
37.7084	12.6923	0.9881
38.0193	15.0000	1.0742
38.3302	16.8889	1.1185
38.6411	22.5926	1.2936
38.9521	27.6296	1.4306
39.2630	70.4286	2.2429
39.5739	147.7143	3.2482
39.8848	209.2143	3.8657
40.1957	46.4286	1.8211
40.5067	21.0714	1.2268
40.8176	17.5000	1.1180
41.1285	14.9286	1.0326
41.4394	12.0000	0.9258
41.7504	12.0714	0.9286
42.0613	14.0714	1.0025
42.3722	16.1429	1.0738
42.6831	31.6552	1.4775
42.9940	12.3448	0.9227
43.3050	12.1379	0.9149
43.6159	16.3333	1.0435
43.9268	10.6000	0.8406
44.2377	12.4667	0.9117
44.5486	11.4667	0.8743
44.8596	9.8000	0.8083
45.1705	9.2667	0.7860
45.4814	9.4667	0.7944
45.7923	11.0000	0.8563
46.1032	9.0000	0.7746
46.4142	9.7333	0.8055
46.7251	9.0968	0.7661
47.0360	9.4194	0.7796
47.3469	9.0323	0.7634
47.6579	8.5625	0.7315
47.9688	9.8750	0.7856
48.2797	9.1250	0.7552
48.5906	8.8750	0.7448
48.9015	8.3125	0.7208
49.2125	7.4375	0.6818
49.5234	7.8750	0.7016
49.8343	8.8125	0.7421
50.1452	9.0000	0.7500
50.4561	8.4375	0.7262
50.7671	7.6970	0.6830
51.0780	6.6667	0.6356
51.3889	8.0606	0.6989
51.6998	7.4706	0.6629
52.0107	8.1765	0.6935
52.3217	8.0000	0.6860
52.6326	7.7647	0.6758
52.9435	7.5294	0.6655
53.2544	7.1176	0.6471
53.5654	6.8235	0.6335
53.8763	7.5294	0.6655
54.1872	8.0000	0.6860
54.4981	6.5294	0.6197
54.8090	7.6000	0.6590
55.1200	8.7429	0.7068
55.4309	9.2000	0.7251
55.7418	8.9444	0.7049
56.0527	9.2778	0.7179
56.3636	10.7222	0.7718
56.6746	10.1667	0.7515
56.9855	14.5556	0.8992
57.2964	21.6111	1.0957
57.6073	29.2778	1.2754
57.9183	16.7778	0.9655
58.2292	9.8333	0.7391
58.5401	8.7568	0.6880
58.8510	8.1622	0.6642
59.1619	8.5946	0.6816
59.4729	8.1081	0.6620
59.7838	7.8421	0.6425
60.0947	7.1053	0.6115
60.4056	9.2632	0.6982
60.7165	8.7368	0.6781
61.0275	9.8947	0.7216
61.3384	7.0526	0.6093
61.6493	7.5789	0.6316
61.9602	7.6842	0.6359
62.2711	6.5789	0.5884
62.5821	6.6154	0.5825
62.8930	8.4103	0.6567
63.2039	8.0000	0.6405
63.5148	6.9231	0.5958
63.8258	8.2927	0.6360
64.1367	6.3415	0.5562
64.4476	7.5122	0.6053
64.7585	8.0488	0.6266
65.0694	8.1395	0.6153
65.3804	8.0000	0.6100
65.6913	8.2326	0.6188
66.0022	6.9545	0.5622
66.3131	6.6222	0.5425
66.6240	7.1556	0.5639
66.9350	8.3556	0.6094
67.2459	10.8085	0.6782
67.5568	10.5532	0.6701
67.8677	7.9149	0.5803
68.1787	8.3404	0.5957
68.4896	7.5102	0.5537
68.8005	8.4490	0.5872
69.1114	8.2041	0.5787
69.4223	9.5102	0.6230
69.7333	9.2157	0.6012
70.0442	8.7059	0.5843
70.3551	8.8627	0.5895
70.6660	10.1538	0.6249
70.9769	11.0566	0.6459
71.2879	13.2075	0.7060
71.5988	20.9057	0.8882
71.9097	34.2222	1.1258
72.2206	48.2545	1.3247
72.5315	48.1818	1.3237
72.8425	23.6727	0.9278
73.1534	15.0357	0.7328
73.4643	9.7544	0.5850
73.7752	8.1404	0.5344
74.0862	8.0000	0.5298
74.3971	7.7241	0.5161
74.7080	8.2373	0.5284
75.0189	7.6949	0.5107
75.3298	8.1017	0.5241
75.6408	7.6000	0.5033
75.9517	7.7705	0.5047
76.2626	7.8033	0.5058
76.5735	7.8710	0.5039
76.8844	8.7097	0.5301
77.1954	8.3810	0.5158
77.5063	7.7460	0.4959
77.8172	7.7813	0.4931
78.1281	6.9063	0.4646
78.4390	7.6615	0.4855
78.7500	7.5385	0.4816
79.0609	8.9091	0.5196
79.3718	8.3333	0.5025
79.6827	8.0000	0.4887
79.9937	8.1194	0.4923
80.3046	8.4118	0.4974
80.6155	8.7647	0.5077
80.9264	8.2029	0.4876
81.2373	7.5143	0.4634
81.5483	7.4571	0.4616
81.8592	7.9429	0.4764
82.1701	7.9718	0.4739
82.4810	8.3056	0.4803
82.7919	8.1944	0.4771
83.1029	8.1389	0.4755
83.4138	9.1507	0.5007
83.7247	8.5946	0.4820
84.0356	10.2973	0.5275
84.3466	11.5135	0.5578
84.6575	12.0000	0.5657
84.9684	12.3684	0.5705
85.2793	14.7368	0.6227
85.5902	16.6842	0.6626
85.9012	18.2051	0.6832
86.2121	19.1795	0.7013
86.5230	13.3077	0.5841
86.8339	12.6410	0.5693
87.1448	11.2000	0.5292
87.4558	10.6500	0.5160
87.7667	11.1750	0.5286
88.0776	11.0500	0.5256
88.3885	11.0732	0.5197
88.6994	11.3171	0.5254
89.0104	11.4634	0.5288
89.3213	11.6341	0.5327
89.6322	11.7381	0.5287
89.9431	12.8810	0.5538
90.2541	13.2381	0.5614
90.5650	13.0238	0.5569
90.8759	13.1163	0.5523
91.1868	12.2326	0.5334
91.4977	14.2791	0.5763
91.8087	13.7955	0.5599
92.1196	13.1818	0.5473
92.4305	13.6136	0.5562
92.7414	14.7045	0.5781
93.0523	15.0000	0.5774
93.3633	13.5333	0.5484
93.6742	15.0222	0.5778
93.9851	14.7333	0.5722
94.2960	14.8261	0.5677
94.6070	14.9783	0.5706
94.9179	15.5652	0.5817
95.2288	16.3696	0.5965
95.5397	16.2553	0.5881
95.8506	14.7872	0.5609
96.1616	17.2553	0.6059
96.4725	16.8211	0.5951
96.7834	16.9375	0.5940
97.0943	16.7708	0.5911
97.4052	18.0625	0.6134
97.7162	18.0206	0.6096
98.0271	17.4694	0.5971
98.3380	21.7551	0.6663
98.6489	23.0000	0.6851
98.9598	23.6939	0.6954
99.2708	26.2600	0.7247
99.5817	25.0600	0.7080
99.8926	23.3000	0.6826
100.2035	19.9600	0.6318
100.5145	19.3529	0.6160
100.8254	18.6078	0.6040
101.1363	18.0392	0.5947
101.4472	17.9804	0.5938
101.7581	18.0980	0.5957
102.0691	18.7115	0.5999
102.3800	19.7308	0.6160
102.6909	19.4808	0.6121
103.0018	19.3269	0.6096
103.3127	18.0762	0.5868
103.6237	16.3774	0.5559
103.9346	18.1321	0.5849
104.2455	18.4717	0.5904
104.5564	18.3208	0.5879
104.8674	18.1667	0.5800
105.1783	17.9815	0.5771
105.4892	17.6852	0.5723
105.8001	18.9815	0.5929
106.1110	17.9450	0.5738
106.4220	18.8364	0.5852
106.7329	19.7455	0.5992
107.0438	18.6182	0.5818
107.3547	17.7273	0.5677
107.6656	19.0090	0.5852
107.9766	17.5893	0.5604
108.2875	18.8214	0.5797
108.5984	18.2143	0.5703
108.9093	18.9423	0.6036
109.2202	19.2766	0.6404
109.5312	19.4458	0.6845
109.8421	18.4167	0.7152
109.9834	18.5672	0.7445