Folder: 2025-Tatiana-MEPAs-FastCooling/XRD/Homogenization (part 3)

File: 10_W0.40Ta0.40Cr0.10Ti0.10_HIP1800C 8h_2.xye
1.544427
20.2968	38.0000	2.0548
20.6077	40.4444	2.1199
20.9186	40.7368	2.0708
21.2296	37.4737	1.9861
21.5405	36.8000	1.9183
21.8514	35.0000	1.8708
22.1623	32.6000	1.8055
22.4732	33.8000	1.8385
22.7842	34.7000	1.8628
23.0951	30.8000	1.7550
23.4060	30.6000	1.7493
23.7169	30.4000	1.7436
24.0278	30.1000	1.7349
24.3388	27.4000	1.6553
24.6497	27.4000	1.6553
24.9606	25.4000	1.5937
25.2715	26.2857	1.5822
25.5824	29.9048	1.6876
25.8934	27.2727	1.5746
26.2043	24.8182	1.5021
26.5152	24.5455	1.4938
26.8261	24.2727	1.4855
27.1371	25.5455	1.5239
27.4480	25.6364	1.5266
27.7589	21.9091	1.4113
28.0698	21.4545	1.3966
28.3807	23.7273	1.4687
28.6917	22.9091	1.4431
29.0026	21.6364	1.4025
29.3135	18.8182	1.3080
29.6244	20.0000	1.3188
29.9353	22.5217	1.3994
30.2463	19.6667	1.2802
30.5572	19.2500	1.2666
30.8681	19.2500	1.2666
31.1790	18.0000	1.2247
31.4900	17.1667	1.1961
31.8009	18.2500	1.2332
32.1118	19.0000	1.2583
32.4227	20.3333	1.3017
32.7336	16.9167	1.1873
33.0446	17.6667	1.2134
33.3555	17.6667	1.2134
33.6664	16.7500	1.1815
33.9773	17.2000	1.1730
34.2882	14.5600	1.0793
34.5992	16.0000	1.1094
34.9101	16.9231	1.1410
35.2210	16.3077	1.1200
35.5319	15.8462	1.1041
35.8428	15.7692	1.1014
36.1538	14.2308	1.0463
36.4647	14.1538	1.0434
36.7756	15.7692	1.1014
37.0865	14.6923	1.0631
37.3975	14.5385	1.0575
37.7084	15.5385	1.0933
38.0193	15.6154	1.0960
38.3302	15.9259	1.0861
38.6411	25.2593	1.3679
38.9521	33.5556	1.5766
39.2630	78.2857	2.3647
39.5739	236.6429	4.1113
39.8848	215.2143	3.9208
40.1957	53.7143	1.9588
40.5067	24.7143	1.3286
40.8176	18.9286	1.1628
41.1285	16.2143	1.0762
41.4394	15.7143	1.0595
41.7504	14.7857	1.0277
42.0613	13.5714	0.9846
42.3722	12.0714	0.9286
42.6831	12.4828	0.9278
42.9940	10.6897	0.8586
43.3050	12.4138	0.9253
43.6159	12.2000	0.9018
43.9268	11.2667	0.8667
44.2377	10.0667	0.8192
44.5486	11.0000	0.8563
44.8596	10.0000	0.8165
45.1705	10.6667	0.8433
45.4814	9.9333	0.8138
45.7923	10.2000	0.8246
46.1032	10.8667	0.8511
46.4142	8.4000	0.7483
46.7251	11.4839	0.8608
47.0360	10.8387	0.8362
47.3469	10.7742	0.8337
47.6579	10.9375	0.8268
47.9688	10.0000	0.7906
48.2797	10.1875	0.7979
48.5906	9.0000	0.7500
48.9015	9.4375	0.7680
49.2125	8.9375	0.7474
49.5234	8.6875	0.7369
49.8343	9.1875	0.7578
50.1452	9.4375	0.7680
50.4561	9.1875	0.7578
50.7671	8.7273	0.7273
51.0780	8.7273	0.7273
51.3889	9.0909	0.7423
51.6998	8.8235	0.7204
52.0107	8.5294	0.7083
52.3217	9.0000	0.7276
52.6326	8.7647	0.7180
52.9435	9.4118	0.7441
53.2544	8.7647	0.7180
53.5654	8.8235	0.7204
53.8763	9.9412	0.7647
54.1872	10.0588	0.7692
54.4981	9.2353	0.7371
54.8090	8.1714	0.6833
55.1200	9.0286	0.7183
55.4309	9.4286	0.7340
55.7418	10.2222	0.7536
56.0527	10.5000	0.7638
56.3636	13.2222	0.8571
56.6746	21.2778	1.0872
56.9855	36.7778	1.4294
57.2964	59.1111	1.8122
57.6073	52.4444	1.7069
57.9183	26.1667	1.2057
58.2292	13.6667	0.8714
58.5401	11.0811	0.7739
58.8510	9.2973	0.7089
59.1619	8.5405	0.6794
59.4729	9.0270	0.6985
59.7838	8.3684	0.6637
60.0947	7.4737	0.6272
60.4056	8.8947	0.6842
60.7165	7.6316	0.6338
61.0275	8.4211	0.6657
61.3384	7.1053	0.6115
61.6493	6.9474	0.6047
61.9602	7.8947	0.6446
62.2711	8.2632	0.6595
62.5821	7.3846	0.6154
62.8930	7.2821	0.6111
63.2039	8.0513	0.6426
63.5148	7.2821	0.6111
63.8258	8.5366	0.6453
64.1367	7.7073	0.6132
64.4476	6.5366	0.5647
64.7585	8.9268	0.6599
65.0694	7.7209	0.5993
65.3804	6.5581	0.5523
65.6913	7.9070	0.6064
66.0022	7.9091	0.5996
66.3131	8.0000	0.5963
66.6240	7.0667	0.5604
66.9350	7.7778	0.5879
67.2459	6.8936	0.5416
67.5568	8.5106	0.6018
67.8677	7.2766	0.5565
68.1787	7.1915	0.5532
68.4896	8.2449	0.5801
68.8005	9.3061	0.6163
69.1114	8.8571	0.6013
69.4223	8.6531	0.5943
69.7333	9.5294	0.6113
70.0442	8.7843	0.5869
70.3551	10.5882	0.6444
70.6660	14.0385	0.7348
70.9769	15.9245	0.7752
71.2879	25.5094	0.9811
71.5988	41.6226	1.2533
71.9097	62.3333	1.5194
72.2206	63.7818	1.5229
72.5315	41.0909	1.2224
72.8425	19.6000	0.8442
73.1534	12.9643	0.6804
73.4643	10.4211	0.6047
73.7752	8.7368	0.5537
74.0862	8.7368	0.5537
74.3971	8.2759	0.5342
74.7080	8.5424	0.5381
75.0189	8.4746	0.5360
75.3298	8.8814	0.5487
75.6408	8.0333	0.5175
75.9517	8.5574	0.5297
76.2626	7.6721	0.5015
76.5735	7.8387	0.5029
76.8844	7.6452	0.4966
77.1954	7.9683	0.5030
77.5063	6.7937	0.4644
77.8172	9.3125	0.5395
78.1281	7.6250	0.4881
78.4390	8.2462	0.5037
78.7500	7.9077	0.4933
79.0609	7.3030	0.4704
79.3718	7.8485	0.4877
79.6827	7.4627	0.4720
79.9937	7.0746	0.4595
80.3046	8.0882	0.4877
80.6155	7.5294	0.4706
80.9264	6.9855	0.4500
81.2373	8.3429	0.4882
81.5483	7.6571	0.4677
81.8592	8.2857	0.4866
82.1701	8.9577	0.5023
82.4810	8.4722	0.4851
82.7919	8.3333	0.4811
83.1029	9.1389	0.5038
83.4138	8.8219	0.4916
83.7247	8.8108	0.4880
84.0356	9.4595	0.5056
84.3466	10.1081	0.5227
84.6575	12.4267	0.5757
84.9684	15.4211	0.6370
85.2793	18.3947	0.6958
85.5902	23.9737	0.7943
85.9012	22.7692	0.7641
86.2121	14.8205	0.6165
86.5230	11.5385	0.5439
86.8339	10.2564	0.5128
87.1448	9.8500	0.4962
87.4558	9.9250	0.4981
87.7667	9.5500	0.4886
88.0776	9.2500	0.4809
88.3885	9.6341	0.4847
88.6994	9.7073	0.4866
89.0104	9.5610	0.4829
89.3213	10.0976	0.4963
89.6322	10.4524	0.4989
89.9431	9.4048	0.4732
90.2541	11.3095	0.5189
90.5650	9.3810	0.4726
90.8759	10.6047	0.4966
91.1868	10.8372	0.5020
91.4977	10.9767	0.5052
91.8087	11.1818	0.5041
92.1196	11.3864	0.5087
92.4305	11.8409	0.5188
92.7414	12.6818	0.5369
93.0523	11.9556	0.5154
93.3633	11.9333	0.5150
93.6742	11.3333	0.5018
93.9851	13.2000	0.5416
94.2960	13.1957	0.5356
94.6070	13.9783	0.5512
94.9179	14.1304	0.5542
95.2288	13.8913	0.5495
95.5397	13.1064	0.5281
95.8506	14.0213	0.5462
96.1616	14.8085	0.5613
96.4725	15.3263	0.5680
96.7834	16.4792	0.5859
97.0943	17.1458	0.5977
97.4052	17.9792	0.6120
97.7162	20.5361	0.6507
98.0271	22.7959	0.6821
98.3380	28.4286	0.7617
98.6489	34.0612	0.8337
98.9598	35.7143	0.8537
99.2708	35.0800	0.8376
99.5817	27.7800	0.7454
99.8926	19.8200	0.6296
100.2035	18.3200	0.6053
100.5145	17.4902	0.5856
100.8254	16.8431	0.5747
101.1363	17.4314	0.5846
101.4472	16.7255	0.5727
101.7581	16.7647	0.5733
102.0691	15.7308	0.5500
102.3800	15.9038	0.5530
102.6909	16.0962	0.5564
103.0018	17.2500	0.5760
103.3127	17.5810	0.5787
103.6237	15.6604	0.5436
103.9346	18.2075	0.5861
104.2455	16.2830	0.5543
104.5564	16.0377	0.5501
104.8674	17.0926	0.5626
105.1783	17.1111	0.5629
105.4892	17.5000	0.5693
105.8001	17.2593	0.5653
106.1110	15.9266	0.5406
106.4220	16.9636	0.5554
106.7329	17.1091	0.5577
107.0438	16.9818	0.5557
107.3547	17.2182	0.5595
107.6656	18.3784	0.5754
107.9766	17.0357	0.5516
108.2875	16.2679	0.5390
108.5984	17.4464	0.5582
108.9093	16.1346	0.5570
109.2202	16.2128	0.5873
109.5312	17.4458	0.6484
109.8421	16.6111	0.6793
109.9834	18.0896	0.7348

File: 10_W0.40Ta0.40Cr0.10Ti0.10_HIP1800C_8h_1_txt.txt
1.544427
20.2968	40.2222	2.1140
20.6077	41.8889	2.1574
20.9186	35.7895	1.9410
21.2296	37.6842	1.9917
21.5405	34.6000	1.8601
21.8514	36.6000	1.9131
22.1623	32.3000	1.7972
22.4732	32.0000	1.7889
22.7842	29.8000	1.7263
23.0951	34.2000	1.8493
23.4060	30.0000	1.7321
23.7169	30.9000	1.7578
24.0278	26.5000	1.6279
24.3388	27.3000	1.6523
24.6497	27.4000	1.6553
24.9606	26.4000	1.6248
25.2715	27.2381	1.6106
25.5824	25.4286	1.5562
25.8934	25.7273	1.5293
26.2043	24.2727	1.4855
26.5152	20.7273	1.3727
26.8261	23.5455	1.4630
27.1371	23.7273	1.4687
27.4480	23.6364	1.4659
27.7589	22.6364	1.4345
28.0698	21.7273	1.4054
28.3807	21.9091	1.4113
28.6917	22.0909	1.4171
29.0026	18.5455	1.2984
29.3135	20.8182	1.3757
29.6244	21.9130	1.3804
29.9353	19.6522	1.3072
30.2463	21.0000	1.3229
30.5572	19.0833	1.2611
30.8681	18.4167	1.2388
31.1790	17.5833	1.2105
31.4900	17.0000	1.1902
31.8009	19.0000	1.2583
32.1118	19.2500	1.2666
32.4227	17.6667	1.2134
32.7336	16.0833	1.1577
33.0446	17.4167	1.2047
33.3555	16.4167	1.1696
33.6664	16.2500	1.1637
33.9773	15.6000	1.1171
34.2882	16.0000	1.1314
34.5992	15.9231	1.1067
34.9101	16.0769	1.1121
35.2210	15.9231	1.1067
35.5319	14.7692	1.0659
35.8428	17.3077	1.1538
36.1538	15.6923	1.0987
36.4647	15.3077	1.0851
36.7756	14.9231	1.0714
37.0865	17.3077	1.1538
37.3975	15.0769	1.0769
37.7084	13.7692	1.0292
38.0193	15.5385	1.0933
38.3302	16.9630	1.1209
38.6411	21.0370	1.2483
38.9521	31.1111	1.5181
39.2630	65.0000	2.1547
39.5739	213.0000	3.9005
39.8848	266.0000	4.3589
40.1957	54.5000	1.9730
40.5067	26.2857	1.3702
40.8176	16.1429	1.0738
41.1285	15.5714	1.0546
41.4394	14.5714	1.0202
41.7504	13.3571	0.9768
42.0613	11.7857	0.9175
42.3722	13.6429	0.9872
42.6831	11.9310	0.9071
42.9940	13.3793	0.9606
43.3050	11.7931	0.9018
43.6159	10.5333	0.8380
43.9268	9.5333	0.7972
44.2377	11.8000	0.8869
44.5486	11.6000	0.8794
44.8596	10.2667	0.8273
45.1705	12.9333	0.9286
45.4814	10.7333	0.8459
45.7923	10.1333	0.8219
46.1032	10.1333	0.8219
46.4142	9.8000	0.8083
46.7251	10.5161	0.8237
47.0360	11.0323	0.8437
47.3469	9.4839	0.7822
47.6579	8.6875	0.7369
47.9688	8.2500	0.7181
48.2797	8.7500	0.7395
48.5906	8.1250	0.7126
48.9015	10.6875	0.8173
49.2125	9.6875	0.7781
49.5234	9.1250	0.7552
49.8343	9.0625	0.7526
50.1452	9.3750	0.7655
50.4561	9.8750	0.7856
50.7671	10.4242	0.7948
51.0780	8.0000	0.6963
51.3889	9.8182	0.7714
51.6998	7.5294	0.6655
52.0107	9.1765	0.7347
52.3217	10.2353	0.7759
52.6326	8.0588	0.6885
52.9435	9.2353	0.7371
53.2544	9.7647	0.7579
53.5654	8.2941	0.6985
53.8763	7.7647	0.6758
54.1872	8.0000	0.6860
54.4981	7.3529	0.6577
54.8090	8.1143	0.6809
55.1200	8.5714	0.6999
55.4309	9.6571	0.7429
55.7418	8.3333	0.6804
56.0527	9.8889	0.7412
56.3636	10.7778	0.7738
56.6746	13.6667	0.8714
56.9855	24.3889	1.1640
57.2964	46.8333	1.6130
57.6073	55.7222	1.7595
57.9183	25.4444	1.1889
58.2292	12.8889	0.8462
58.5401	9.3514	0.7110
58.8510	8.4324	0.6751
59.1619	8.5946	0.6816
59.4729	7.2973	0.6281
59.7838	7.2632	0.6183
60.0947	7.8421	0.6425
60.4056	8.4211	0.6657
60.7165	7.3158	0.6205
61.0275	7.7895	0.6403
61.3384	6.4211	0.5813
61.6493	7.4737	0.6272
61.9602	8.2105	0.6574
62.2711	9.2632	0.6982
62.5821	7.1795	0.6068
62.8930	7.1795	0.6068
63.2039	7.2821	0.6111
63.5148	7.0256	0.6002
63.8258	7.0732	0.5874
64.1367	7.6098	0.6093
64.4476	7.8537	0.6190
64.7585	7.2683	0.5954
65.0694	6.0465	0.5303
65.3804	7.3953	0.5865
65.6913	6.9302	0.5677
66.0022	7.4091	0.5803
66.3131	6.5333	0.5389
66.6240	6.1778	0.5240
66.9350	6.3111	0.5296
67.2459	8.0851	0.5866
67.5568	7.7872	0.5756
67.8677	5.9149	0.5017
68.1787	6.3830	0.5212
68.4896	7.3878	0.5491
68.8005	6.4082	0.5114
69.1114	8.2449	0.5801
69.4223	7.7143	0.5611
69.7333	6.5882	0.5083
70.0442	8.6667	0.5830
70.3551	9.1373	0.5986
70.6660	10.4231	0.6332
70.9769	11.1321	0.6481
71.2879	16.9811	0.8005
71.5988	29.1321	1.0485
71.9097	51.2222	1.3774
72.2206	67.6000	1.5679
72.5315	46.1818	1.2959
72.8425	21.2000	0.8780
73.1534	12.0714	0.6566
73.4643	8.4211	0.5436
73.7752	8.8070	0.5559
74.0862	8.8772	0.5581
74.3971	7.5172	0.5091
74.7080	6.9492	0.4853
75.0189	7.1864	0.4936
75.3298	7.1525	0.4924
75.6408	6.2667	0.4570
75.9517	6.5574	0.4637
76.2626	6.5902	0.4648
76.5735	6.6452	0.4630
76.8844	6.2258	0.4481
77.1954	6.5397	0.4556
77.5063	6.6032	0.4578
77.8172	5.8125	0.4262
78.1281	6.2813	0.4430
78.4390	7.0769	0.4666
78.7500	6.7385	0.4553
79.0609	6.6364	0.4484
79.3718	6.6970	0.4505
79.6827	6.5075	0.4407
79.9937	6.0597	0.4253
80.3046	6.1176	0.4242
80.6155	6.2353	0.4282
80.9264	7.1594	0.4555
81.2373	6.2571	0.4228
81.5483	6.2571	0.4228
81.8592	6.9143	0.4445
82.1701	7.0423	0.4454
82.4810	6.8611	0.4366
82.7919	6.5000	0.4249
83.1029	7.2778	0.4496
83.4138	7.0685	0.4401
83.7247	6.8378	0.4299
84.0356	8.4865	0.4789
84.3466	8.5405	0.4804
84.6575	9.7333	0.5095
84.9684	13.3421	0.5925
85.2793	17.7368	0.6832
85.5902	22.3158	0.7663
85.9012	25.5385	0.8092
86.2121	18.2564	0.6842
86.5230	11.2821	0.5379
86.8339	8.9231	0.4783
87.1448	8.5250	0.4617
87.4558	9.2250	0.4802
87.7667	8.6500	0.4650
88.0776	8.3000	0.4555
88.3885	9.7805	0.4884
88.6994	8.3415	0.4511
89.0104	8.3415	0.4511
89.3213	8.5610	0.4570
89.6322	8.9762	0.4623
89.9431	10.0952	0.4903
90.2541	10.5952	0.5023
90.5650	9.2143	0.4684
90.8759	10.5349	0.4950
91.1868	10.3023	0.4895
91.4977	10.7209	0.4993
91.8087	10.5455	0.4896
92.1196	11.5682	0.5128
92.4305	10.4545	0.4874
92.7414	11.6136	0.5138
93.0523	12.3333	0.5235
93.3633	12.6889	0.5310
93.6742	12.0000	0.5164
93.9851	13.1111	0.5398
94.2960	13.2174	0.5360
94.6070	12.3478	0.5181
94.9179	12.8261	0.5280
95.2288	13.8478	0.5487
95.5397	13.9787	0.5454
95.8506	13.7660	0.5412
96.1616	13.8085	0.5420
96.4725	14.0842	0.5445
96.7834	14.7917	0.5551
97.0943	16.4167	0.5848
97.4052	17.4583	0.6031
97.7162	18.0206	0.6096
98.0271	21.6122	0.6641
98.3380	27.5102	0.7493
98.6489	29.3265	0.7736
98.9598	35.3469	0.8493
99.2708	36.4600	0.8539
99.5817	30.9400	0.7866
99.8926	23.9000	0.6914
100.2035	18.4800	0.6079
100.5145	18.8431	0.6078
100.8254	17.7255	0.5895
101.1363	17.6078	0.5876
101.4472	16.5490	0.5696
101.7581	17.0588	0.5783
102.0691	17.4231	0.5788
102.3800	16.0577	0.5557
102.6909	16.3077	0.5600
103.0018	16.7308	0.5672
103.3127	16.1143	0.5540
103.6237	15.9057	0.5478
103.9346	17.0377	0.5670
104.2455	17.7736	0.5791
104.5564	17.2075	0.5698
104.8674	16.1667	0.5472
105.1783	16.6111	0.5546
105.4892	16.0556	0.5453
105.8001	16.8519	0.5586
106.1110	15.8165	0.5387
106.4220	16.0000	0.5394
106.7329	17.9091	0.5706
107.0438	16.1818	0.5424
107.3547	16.2364	0.5433
107.6656	16.8649	0.5512
107.9766	16.0536	0.5354
108.2875	16.9643	0.5504
108.5984	16.9286	0.5498
108.9093	17.1154	0.5737
109.2202	16.3404	0.5896
109.5312	16.6024	0.6325
109.8421	16.2222	0.6713
109.9834	17.3433	0.7195

File: 10_W0.40Ta0.40Cr0.10Ti0.10_HIP1800C_10 h_fast_cooling.xye
1.544427
20.3039	21.6133	0.3796
20.6148	21.9667	0.3827
20.9257	21.6867	0.3802
21.2366	21.5600	0.3791
21.5475	21.1667	0.3756
21.8585	21.5933	0.3794
22.1694	20.6933	0.3714
22.4803	20.1200	0.3662
22.7912	19.9267	0.3645
23.1021	20.1933	0.3669
23.4131	19.1000	0.3568
23.7240	18.9667	0.3556
24.0349	18.8533	0.3545
24.3458	18.7000	0.3531
24.6568	19.2600	0.3583
24.9677	18.0533	0.3469
25.2786	18.0400	0.3468
25.5895	17.6667	0.3432
25.9004	17.9800	0.3462
26.2114	17.3733	0.3403
26.5223	17.3333	0.3399
26.8332	17.6667	0.3432
27.1441	17.0200	0.3368
27.4550	16.9067	0.3357
27.7660	16.3800	0.3305
28.0769	16.6800	0.3335
28.3878	16.4867	0.3315
28.6987	16.1867	0.3285
29.0096	15.3667	0.3201
29.3206	15.6000	0.3225
29.6315	15.0267	0.3165
29.9424	15.4867	0.3213
30.2533	15.6933	0.3235
30.5643	14.6467	0.3125
30.8752	14.8200	0.3143
31.1861	14.4600	0.3105
31.4970	14.5267	0.3112
31.8079	14.1733	0.3074
32.1189	14.3200	0.3090
32.4298	13.8800	0.3042
32.7407	13.5600	0.3007
33.0516	14.1933	0.3076
33.3625	13.1267	0.2958
33.6735	12.8733	0.2930
33.9844	13.5400	0.3004
34.2953	13.5133	0.3001
34.6062	13.3467	0.2983
34.9172	13.0400	0.2948
35.2281	12.8867	0.2931
35.5390	12.3733	0.2872
35.8499	12.2800	0.2861
36.1608	12.5667	0.2894
36.4718	12.0800	0.2838
36.7827	11.6933	0.2792
37.0936	12.1467	0.2846
37.4045	11.6933	0.2792
37.7154	12.3267	0.2867
38.0264	12.9600	0.2939
38.3373	14.9467	0.3157
38.6482	17.8400	0.3449
38.9591	24.9533	0.4079
39.2700	65.1533	0.6591
39.5810	239.4333	1.2634
39.8919	195.6733	1.1421
40.2028	45.9667	0.5536
40.5137	21.1933	0.3759
40.8247	15.5467	0.3219
41.1356	13.2000	0.2966
41.4465	12.2467	0.2857
41.7574	11.1800	0.2730
42.0683	10.9467	0.2701
42.3793	10.0400	0.2587
42.6902	10.6200	0.2661
43.0011	10.7133	0.2672
43.3120	10.0600	0.2590
43.6229	10.2067	0.2609
43.9339	9.3067	0.2491
44.2448	9.1867	0.2475
44.5557	9.4800	0.2514
44.8666	9.0333	0.2454
45.1775	8.9267	0.2439
45.4885	9.2067	0.2477
45.7994	8.6867	0.2406
46.1103	8.8933	0.2435
46.4212	8.6133	0.2396
46.7322	8.6067	0.2395
47.0431	7.9333	0.2300
47.3540	8.3933	0.2365
47.6649	7.8600	0.2289
47.9758	7.4933	0.2235
48.2868	8.1000	0.2324
48.5977	8.3267	0.2356
48.9086	7.6267	0.2255
49.2195	7.6533	0.2259
49.5304	7.8467	0.2287
49.8414	7.4467	0.2228
50.1523	7.6733	0.2262
50.4632	7.7200	0.2269
50.7741	7.3267	0.2210
51.0851	7.2467	0.2198
51.3960	7.3600	0.2215
51.7069	7.9133	0.2297
52.0178	7.1000	0.2176
52.3287	7.4667	0.2231
52.6397	7.1733	0.2187
52.9506	7.4133	0.2223
53.2615	7.4667	0.2231
53.5724	7.3667	0.2216
53.8833	7.0267	0.2164
54.1943	6.7800	0.2126
54.5052	7.2800	0.2203
54.8161	7.4867	0.2234
55.1270	7.2600	0.2200
55.4379	7.7200	0.2269
55.7489	7.8400	0.2286
56.0598	8.9733	0.2446
56.3707	10.5533	0.2652
56.6816	18.0133	0.3465
56.9926	38.9933	0.5099
57.3035	68.9800	0.6781
57.6144	58.5000	0.6245
57.9253	24.7667	0.4063
58.2362	12.3667	0.2871
58.5472	9.1733	0.2473
58.8581	7.5000	0.2236
59.1690	7.5000	0.2236
59.4799	7.3200	0.2209
59.7908	6.7267	0.2118
60.1018	6.8600	0.2139
60.4127	6.3533	0.2058
60.7236	6.4533	0.2074
61.0345	6.7200	0.2117
61.3455	6.5333	0.2087
61.6564	6.4333	0.2071
61.9673	6.4267	0.2070
62.2782	6.5467	0.2089
62.5891	6.5533	0.2090
62.9001	6.6133	0.2100
63.2110	6.2533	0.2042
63.5219	6.1133	0.2019
63.8328	6.2067	0.2034
64.1437	6.4600	0.2075
64.4547	6.2400	0.2040
64.7656	5.8267	0.1971
65.0765	6.2200	0.2036
65.3874	6.0800	0.2013
65.6983	6.2933	0.2048
66.0093	6.1400	0.2023
66.3202	6.3400	0.2056
66.6311	6.0867	0.2014
66.9420	6.1867	0.2031
67.2530	5.6800	0.1946
67.5639	6.2667	0.2044
67.8748	5.5200	0.1918
68.1857	6.1400	0.2023
68.4966	5.9600	0.1993
68.8076	6.2933	0.2048
69.1185	6.0000	0.2000
69.4294	6.6467	0.2105
69.7403	6.7933	0.2128
70.0512	7.5467	0.2243
70.3622	7.8600	0.2289
70.6731	8.5333	0.2385
70.9840	12.0000	0.2828
71.2949	20.9467	0.3737
71.6059	43.5800	0.5390
71.9168	68.9933	0.6782
72.2277	66.7533	0.6671
72.5386	36.8467	0.4956
72.8495	16.3400	0.3301
73.1605	9.6600	0.2538
73.4714	7.9067	0.2296
73.7823	7.0200	0.2163
74.0932	6.8933	0.2144
74.4041	6.2467	0.2041
74.7151	6.3200	0.2053
75.0260	5.6467	0.1940
75.3369	5.9333	0.1989
75.6478	6.0000	0.2000
75.9587	5.8933	0.1982
76.2697	5.8000	0.1966
76.5806	5.5933	0.1931
76.8915	5.7867	0.1964
77.2024	5.7267	0.1954
77.5134	5.4267	0.1902
77.8243	5.3333	0.1886
78.1352	5.4733	0.1910
78.4461	5.5267	0.1919
78.7570	5.5467	0.1923
79.0680	5.6867	0.1947
79.3789	5.3733	0.1893
79.6898	5.2000	0.1862
80.0007	5.1933	0.1861
80.3116	5.5800	0.1929
80.6226	5.5333	0.1921
80.9335	5.1600	0.1855
81.2444	5.5467	0.1923
81.5553	5.5333	0.1921
81.8662	5.3533	0.1889
82.1772	5.3467	0.1888
82.4881	5.4867	0.1913
82.7990	5.3800	0.1894
83.1099	5.3667	0.1892
83.4209	5.5867	0.1930
83.7318	5.3333	0.1886
84.0427	5.9133	0.1986
84.3536	6.9533	0.2153
84.6645	8.4200	0.2369
84.9755	13.1067	0.2956
85.2864	17.8333	0.3448
85.5973	18.9000	0.3550
85.9082	15.7400	0.3239
86.2191	10.3800	0.2631
86.5301	7.2600	0.2200
86.8410	6.1733	0.2029
87.1519	5.6333	0.1938
87.4628	5.5800	0.1929
87.7738	5.3933	0.1896
88.0847	5.2267	0.1867
88.3956	5.1333	0.1850
88.7065	5.1533	0.1854
89.0174	5.1400	0.1851
89.3284	5.4600	0.1908
89.6393	4.9600	0.1818
89.9502	5.3267	0.1884
90.2611	5.2000	0.1862
90.5720	5.1867	0.1860
90.8830	5.5067	0.1916
91.1939	5.1067	0.1845
91.5048	5.1533	0.1854
91.8157	5.2200	0.1865
92.1266	4.9200	0.1811
92.4376	5.2000	0.1862
92.7485	5.4200	0.1901
93.0594	4.7133	0.1773
93.3703	5.1267	0.1849
93.6813	5.3133	0.1882
93.9922	5.5200	0.1918
94.3031	5.2333	0.1868
94.6140	5.7800	0.1963
94.9249	5.4333	0.1903
95.2359	5.2467	0.1870
95.5468	5.4467	0.1906
95.8577	5.5933	0.1931
96.1686	6.1533	0.2025
96.4795	6.2733	0.2045
96.7905	6.6467	0.2105
97.1014	7.4067	0.2222
97.4123	8.5667	0.2390
97.7232	11.2000	0.2733
98.0342	15.7267	0.3238
98.3451	21.8733	0.3819
98.6560	25.8067	0.4148
98.9669	26.5533	0.4207
99.2778	22.5800	0.3880
99.5888	15.7200	0.3237
99.8997	10.5867	0.2657
100.2106	8.0467	0.2316
100.5215	7.0400	0.2166
100.8324	6.2800	0.2046
101.1434	5.6933	0.1948
101.4543	6.0267	0.2004
101.7652	5.6533	0.1941
102.0761	5.7133	0.1952
102.3870	5.7200	0.1953
102.6980	5.6000	0.1932
103.0089	5.9600	0.1993
103.3198	5.3933	0.1896
103.6307	5.6000	0.1932
103.9417	5.6133	0.1934
104.2526	5.4467	0.1906
104.5635	5.4933	0.1914
104.8744	5.6133	0.1934
105.1853	5.7067	0.1950
105.4963	5.5267	0.1919
105.8072	5.6400	0.1939
106.1181	5.5200	0.1918
106.4290	6.0133	0.2002
106.7399	5.5600	0.1925
107.0509	5.5867	0.1930
107.3618	5.9800	0.1997
107.6727	5.3800	0.1894
107.9836	6.0400	0.2007
108.2945	5.7467	0.1957
108.6055	5.8800	0.1980
108.9164	5.7933	0.1965
109.2273	5.6933	0.1948
109.5382	5.7333	0.1955
109.8492	5.9800	0.1997
109.9905	6.0267	0.2004