Folder: 2025-Tatiana-MEPAs-FastCooling/XRD/SPS (part 2)

File: WTaVTiCr_SPS1850C.xye
1.544427
20.2665	53.6364	0.8346
20.5469	53.3171	0.8064
20.8274	53.3218	0.7829
21.1079	52.9022	0.7583
21.3884	52.5258	0.7359
21.6689	51.2549	0.7089
21.9494	51.3178	0.6925
22.2299	49.5000	0.6648
22.5103	49.8803	0.6529
22.7908	49.1148	0.6345
23.0713	49.0787	0.6216
23.3518	48.0682	0.6035
23.6323	46.7883	0.5844
23.9128	46.2465	0.5707
24.1933	45.5000	0.5621
24.4737	45.8889	0.5645
24.7542	45.6597	0.5631
25.0347	46.1111	0.5659
25.3152	46.3403	0.5673
25.5957	46.2222	0.5666
25.8762	45.7083	0.5634
26.1567	44.6944	0.5571
26.4371	44.8125	0.5579
26.7176	44.3333	0.5549
26.9981	45.7361	0.5636
27.2786	44.8681	0.5582
27.5591	44.8819	0.5583
27.8396	45.3819	0.5614
28.1201	44.0833	0.5533
28.4005	44.8611	0.5582
28.6810	44.0069	0.5528
28.9615	44.4722	0.5557
29.2420	44.0625	0.5532
29.5225	45.3264	0.5610
29.8030	43.9306	0.5523
30.0834	43.9931	0.5527
30.3639	43.6389	0.5505
30.6444	43.4306	0.5492
30.9249	43.1042	0.5471
31.2054	43.9792	0.5526
31.4859	42.9583	0.5462
31.7664	43.6042	0.5503
32.0468	43.1458	0.5474
32.3273	42.7431	0.5448
32.6078	42.9236	0.5460
32.8883	42.4167	0.5427
33.1688	41.9236	0.5396
33.4493	42.4444	0.5429
33.7298	43.0000	0.5465
34.0102	42.2361	0.5416
34.2907	42.2431	0.5416
34.5712	41.9444	0.5397
34.8517	41.5000	0.5368
35.1322	41.0139	0.5337
35.4127	42.3819	0.5425
35.6932	44.5417	0.5562
35.9736	48.2014	0.5786
36.2541	61.1528	0.6517
36.5346	46.0903	0.5657
36.8151	41.8819	0.5393
37.0956	42.2222	0.5415
37.3761	40.9444	0.5332
37.6566	40.8542	0.5326
37.9370	41.4931	0.5368
38.2175	42.4583	0.5430
38.4980	42.3333	0.5422
38.7785	43.7917	0.5515
39.0590	44.6528	0.5569
39.3395	50.7500	0.5937
39.6199	59.3333	0.6419
39.9004	81.1944	0.7509
40.1809	151.5417	1.0259
40.4614	369.9792	1.6029
40.7419	568.5972	1.9871
41.0224	311.9861	1.4719
41.3029	128.0625	0.9430
41.5833	74.5556	0.7195
41.8638	63.3958	0.6635
42.1443	78.5139	0.7384
42.4248	55.5694	0.6212
42.7053	46.0347	0.5654
42.9858	41.8958	0.5394
43.2663	41.2569	0.5353
43.5467	39.6806	0.5249
43.8272	38.5833	0.5176
44.1077	38.0625	0.5141
44.3882	39.0764	0.5209
44.6687	37.6250	0.5112
44.9492	36.4792	0.5033
45.2297	36.4514	0.5031
45.5101	35.7917	0.4986
45.7906	35.8472	0.4989
46.0711	35.0556	0.4934
46.3516	35.4514	0.4962
46.6321	34.8889	0.4922
46.9126	34.5000	0.4895
47.1931	34.6667	0.4907
47.4735	34.7222	0.4910
47.7540	34.5278	0.4897
48.0345	34.6319	0.4904
48.3150	34.0139	0.4860
48.5955	32.2500	0.4732
48.8760	33.5417	0.4826
49.1565	33.9028	0.4852
49.4369	33.6528	0.4834
49.7174	33.3681	0.4814
49.9979	32.0486	0.4718
50.2784	33.3611	0.4813
50.5589	33.1042	0.4795
50.8394	32.9514	0.4784
51.1198	33.4375	0.4819
51.4003	32.8611	0.4777
51.6808	31.5764	0.4683
51.9613	33.2986	0.4809
52.2418	32.8333	0.4775
52.5223	32.1667	0.4726
52.8028	33.0069	0.4788
53.0832	32.7083	0.4766
53.3637	32.9028	0.4780
53.6442	32.0764	0.4720
53.9247	32.0417	0.4717
54.2052	33.2153	0.4803
54.4857	32.9444	0.4783
54.7662	32.3611	0.4741
55.0466	32.2361	0.4731
55.3271	32.3472	0.4740
55.6076	33.0069	0.4788
55.8881	33.5417	0.4826
56.1686	34.0694	0.4864
56.4491	34.7778	0.4914
56.7296	35.8264	0.4988
57.0100	36.2431	0.5017
57.2905	38.1111	0.5145
57.5710	41.5486	0.5372
57.8515	48.9792	0.5832
58.1320	68.4861	0.6896
58.4125	112.7917	0.8850
58.6930	181.6875	1.1233
58.9734	215.7014	1.2239
59.2539	156.8889	1.0438
59.5344	87.9097	0.7813
59.8149	56.8403	0.6283
60.0954	44.7639	0.5575
60.3759	39.9167	0.5265
60.6564	41.0556	0.5340
60.9368	47.1458	0.5722
61.2173	45.6458	0.5630
61.4978	36.4097	0.5028
61.7783	32.9722	0.4785
62.0588	32.9931	0.4787
62.3393	33.5833	0.4829
62.6197	33.1319	0.4797
62.9002	32.4306	0.4746
63.1807	33.1042	0.4795
63.4612	32.7778	0.4771
63.7417	32.2292	0.4731
64.0222	32.7500	0.4769
64.3027	33.3472	0.4812
64.5831	33.5000	0.4823
64.8636	33.1736	0.4800
65.1441	32.5903	0.4757
65.4246	33.0208	0.4789
65.7051	33.3958	0.4816
65.9856	32.8264	0.4775
66.2661	33.3819	0.4815
66.5465	33.0764	0.4793
66.8270	31.6667	0.4689
67.1075	32.9236	0.4782
67.3880	32.6042	0.4758
67.6685	32.3889	0.4743
67.9490	32.8194	0.4774
68.2295	33.1597	0.4799
68.5099	32.4861	0.4750
68.7904	34.5069	0.4895
69.0709	35.4097	0.4959
69.3514	34.3542	0.4884
69.6319	34.7639	0.4913
69.9124	34.0972	0.4866
70.1929	33.6111	0.4831
70.4733	34.4931	0.4894
70.7538	35.0486	0.4933
71.0343	34.2708	0.4878
71.3148	37.0000	0.5069
71.5953	36.9792	0.5068
71.8758	39.6597	0.5248
72.1562	40.9028	0.5330
72.4367	44.7917	0.5577
72.7172	53.6319	0.6103
72.9977	70.7778	0.7011
73.2782	98.0833	0.8253
73.5587	140.4722	0.9877
73.8392	195.9444	1.1665
74.1196	218.5208	1.2319
74.4001	172.3819	1.0941
74.6806	112.5903	0.8842
74.9611	73.5694	0.7148
75.2416	54.1250	0.6131
75.5221	46.2778	0.5669
75.8026	42.1736	0.5412
76.0830	39.8403	0.5260
76.3635	37.1528	0.5079
76.6440	38.3264	0.5159
76.9245	38.7986	0.5191
77.2050	37.0694	0.5074
77.4855	34.6597	0.4906
77.7660	33.8194	0.4846
78.0464	33.4375	0.4819
78.3269	33.2708	0.4807
78.6074	33.3056	0.4809
78.8879	33.0903	0.4794
79.1684	32.0278	0.4716
79.4489	32.2708	0.4734
79.7294	31.5278	0.4679
80.0098	33.1250	0.4796
80.2903	33.3542	0.4813
80.5708	32.4028	0.4744
80.8513	33.0833	0.4793
81.1318	31.8472	0.4703
81.4123	32.3403	0.4739
81.6928	32.4444	0.4747
81.9732	31.7431	0.4695
82.2537	31.4653	0.4674
82.5342	31.9444	0.4710
82.8147	32.8958	0.4780
83.0952	31.8611	0.4704
83.3757	31.4653	0.4674
83.6561	32.3472	0.4740
83.9366	32.7014	0.4765
84.2171	32.5347	0.4753
84.4976	33.1875	0.4801
84.7781	32.6111	0.4759
85.0586	32.2708	0.4734
85.3391	33.8472	0.4848
85.6195	34.1181	0.4868
85.9000	34.4653	0.4892
86.1805	35.5833	0.4971
86.4610	36.9375	0.5065
86.7415	41.7708	0.5386
87.0220	45.4583	0.5619
87.3025	53.4097	0.6090
87.5829	64.4722	0.6691
87.8634	75.3750	0.7235
88.1439	78.9444	0.7404
88.4244	71.7431	0.7058
88.7049	60.4028	0.6477
88.9854	49.4444	0.5860
89.2659	42.9514	0.5461
89.5463	38.5069	0.5171
89.8268	36.1111	0.5008
90.1073	35.6111	0.4973
90.3878	35.1250	0.4939
90.6683	34.3889	0.4887
90.9488	34.3750	0.4886
91.2293	34.4028	0.4888
91.5097	35.3056	0.4952
91.7902	35.7917	0.4986
92.0707	35.0069	0.4931
92.3512	33.7431	0.4841
92.6317	35.0972	0.4937
92.9122	33.6458	0.4834
93.1927	34.4444	0.4891
93.4731	33.4931	0.4823
93.7536	34.2083	0.4874
94.0341	33.6319	0.4833
94.3146	33.0625	0.4792
94.5951	34.2014	0.4873
94.8756	35.1667	0.4942
95.1560	34.5278	0.4897
95.4365	34.2847	0.4879
95.7170	34.4097	0.4888
95.9975	34.6875	0.4908
96.2780	35.0764	0.4935
96.5585	34.4375	0.4890
96.8390	36.0069	0.5000
97.1194	36.3819	0.5026
97.3999	36.4931	0.5034
97.6804	36.2083	0.5014
97.9609	37.5069	0.5104
98.2414	37.6458	0.5113
98.5219	38.8472	0.5194
98.8024	38.6944	0.5184
99.0828	39.7083	0.5251
99.3633	40.6875	0.5316
99.6438	41.8333	0.5390
99.9243	45.1389	0.5599
99.9804	46.2569	0.5668