Folder: 2025-Tatiana-MEPAs-FastCooling/XRD/SPS

Note: README.md
# 2025-Tatiana-MEPAs-FastCooling
Initial data repository for Tania Efremenkova's paper on facile fabrication of BCC MPEAs

File: 7_W0.35Ta0.40Cr0.25_SPS1400C.xye
/* W35Ta40Cr25-SPS; 2ÆŸ 20.00-110.00 by 0.014, dwell 0 s; 20-110 1-2-0.2 - 24_03_31_0015_7-W35Ta40Cr25-SPS-1.xml; count; KAlpha1 1.540593; */
20.0141	1093	33.0606
20.3251	1384	37.2022
20.6360	1560	39.4968
20.9469	1779	42.1782
21.2578	2024	44.9889
21.5687	2151	46.3789
21.8797	2244	47.3709
22.1906	2107	45.9021
22.5015	1999	44.7102
22.8124	2029	45.0444
23.1233	1876	43.3128
23.4343	1829	42.7668
23.7452	1857	43.0929
24.0561	1797	42.3910
24.3670	1796	42.3792
24.6780	1760	41.9524
24.9889	1750	41.8330
25.2998	1666	40.8167
25.6107	1730	41.5933
25.9216	1723	41.5090
26.2326	1640	40.4969
26.5435	1679	40.9756
26.8544	1707	41.3159
27.1653	1505	38.7943
27.4762	1557	39.4588
27.7872	1593	39.9124
28.0981	1522	39.0128
28.4090	1583	39.7869
28.7199	1498	38.7040
29.0308	1508	38.8330
29.3418	1460	38.2099
29.6527	1428	37.7889
29.9636	1476	38.4187
30.2745	1391	37.2961
30.5855	1367	36.9730
30.8964	1437	37.9078
31.2073	1401	37.4299
31.5182	1332	36.4966
31.8291	1335	36.5377
32.1401	1321	36.3456
32.4510	1324	36.3868
32.7619	1240	35.2136
33.0728	1326	36.4143
33.3837	1314	36.2491
33.6947	1264	35.5528
34.0056	1221	34.9428
34.3165	1214	34.8425
34.6274	1290	35.9166
34.9383	1414	37.6032
35.2493	1458	38.1838
35.5602	1574	39.6737
35.8711	2040	45.1664
36.1820	2396	48.9490
36.4930	2038	45.1442
36.8039	1680	40.9878
37.1148	1598	39.9750
37.4257	1642	40.5216
37.7366	1906	43.6578
38.0476	3024	54.9909
38.3585	6833	82.6620
38.6694	8862	94.1382
38.9803	5542	74.4446
39.2912	3437	58.6259
39.6022	2685	51.8170
39.9131	3450	58.7367
40.2240	16711	129.2710
40.5349	3913	62.5540
40.8459	1878	43.3359
41.1568	1528	39.0896
41.4677	1559	39.4842
41.7786	1700	41.2311
42.0895	1960	44.2719
42.4005	2676	51.7301
42.7114	2867	53.5444
43.0223	2149	46.3573
43.3332	1789	42.2966
43.6441	1458	38.1838
43.9551	1295	35.9861
44.2660	1261	35.5106
44.5769	1251	35.3695
44.8878	1128	33.5857
45.1987	1024	32.0000
45.5097	929.0000	30.4795
45.8206	925.0000	30.4138
46.1315	905.0000	30.0832
46.4424	887.0000	29.7825
46.7534	793.0000	28.1603
47.0643	853.0000	29.2062
47.3752	791.0000	28.1247
47.6861	801.0000	28.3019
47.9970	749.0000	27.3679
48.3080	809.0000	28.4429
48.6189	742.0000	27.2397
48.9298	800.0000	28.2843
49.2407	741.0000	27.2213
49.5516	770.0000	27.7489
49.8626	710.0000	26.6458
50.1735	699.0000	26.4386
50.4844	720.0000	26.8328
50.7953	695.0000	26.3629
51.1063	724.0000	26.9072
51.4172	694.0000	26.3439
51.7281	659.0000	25.6710
52.0390	693.0000	26.3249
52.3499	736.0000	27.1293
52.6609	710.0000	26.6458
52.9718	689.0000	26.2488
53.2827	728.0000	26.9815
53.5936	648.0000	25.4558
53.9045	716.0000	26.7582
54.2155	803.0000	28.3373
54.5264	864.0000	29.3939
54.8373	1058	32.5269
55.1482	1298	36.0278
55.4591	1491	38.6135
55.7701	1534	39.1663
56.0810	1377	37.1080
56.3919	1131	33.6303
56.7028	1012	31.8119
57.0138	916.0000	30.2655
57.3247	849.0000	29.1376
57.6356	891.0000	29.8496
57.9465	1323	36.3731
58.2574	3159	56.2050
58.5684	1224	34.9857
58.8793	787.0000	28.0535
59.1902	674.0000	25.9615
59.5011	645.0000	25.3969
59.8120	686.0000	26.1916
60.1230	667.0000	25.8263
60.4339	618.0000	24.8596
60.7448	626.0000	25.0200
61.0557	650.0000	25.4951
61.3667	654.0000	25.5734
61.6776	669.0000	25.8650
61.9885	649.0000	25.4755
62.2994	649.0000	25.4755
62.6103	632.0000	25.1396
62.9213	691.0000	26.2869
63.2322	668.0000	25.8457
63.5431	680.0000	26.0768
63.8540	656.0000	25.6125
64.1649	680.0000	26.0768
64.4759	721.0000	26.8514
64.7868	838.0000	28.9482
65.0977	829.0000	28.7924
65.4086	789.0000	28.0891
65.7195	757.0000	27.5136
66.0305	741.0000	27.2213
66.3414	719.0000	26.8142
66.6523	712.0000	26.6833
66.9632	723.0000	26.8887
67.2742	727.0000	26.9629
67.5851	737.0000	27.1477
67.8960	748.0000	27.3496
68.2069	865.0000	29.4109
68.5178	901.0000	30.0167
68.8288	1162	34.0881
69.1397	1487	38.5616
69.4506	1966	44.3396
69.7615	2110	45.9347
70.0724	1758	41.9285
70.3834	1397	37.3765
70.6943	1143	33.8083
71.0052	950.0000	30.8221
71.3161	878.0000	29.6311
71.6270	840.0000	28.9828
71.9380	771.0000	27.7669
72.2489	789.0000	28.0891
72.5598	937.0000	30.6105
72.8707	1687	41.0731
73.1817	3207	56.6304
73.4926	1623	40.2865
73.8035	869.0000	29.4788
74.1144	728.0000	26.9815
74.4253	650.0000	25.4951
74.7363	652.0000	25.5343
75.0472	615.0000	24.7992
75.3581	626.0000	25.0200
75.6690	649.0000	25.4755
75.9799	694.0000	26.3439
76.2909	702.0000	26.4953
76.6018	724.0000	26.9072
76.9127	731.0000	27.0370
77.2236	652.0000	25.5343
77.5346	602.0000	24.5357
77.8455	618.0000	24.8596
78.1564	584.0000	24.1661
78.4673	576.0000	24.0000
78.7782	528.0000	22.9783
79.0892	533.0000	23.0868
79.4001	574.0000	23.9583
79.7110	569.0000	23.8537
80.0219	542.0000	23.2809
80.3328	599.0000	24.4745
80.6438	593.0000	24.3516
80.9547	619.0000	24.8797
81.2656	568.0000	23.8328
81.5765	640.0000	25.2982
81.8874	620.0000	24.8998
82.1984	728.0000	26.9815
82.5093	836.0000	28.9137
82.8202	842.0000	29.0172
83.1311	758.0000	27.5318
83.4421	741.0000	27.2213
83.7530	655.0000	25.5930
84.0639	629.0000	25.0799
84.3748	571.0000	23.8956
84.6857	550.0000	23.4521
84.9967	630.0000	25.0998
85.3076	583.0000	24.1454
85.6185	603.0000	24.5561
85.9294	627.0000	25.0400
86.2403	647.0000	25.4362
86.5513	862.0000	29.3598
86.8622	1487	38.5616
87.1731	1245	35.2846
87.4840	794.0000	28.1780
87.7950	605.0000	24.5967
88.1059	571.0000	23.8956
88.4168	595.0000	24.3926
88.7277	580.0000	24.0832
89.0386	532.0000	23.0651
89.3496	552.0000	23.4947
89.6605	624.0000	24.9800
89.9714	521.0000	22.8254
90.2823	599.0000	24.4745
90.5932	585.0000	24.1868
90.9042	565.0000	23.7697
91.2151	572.0000	23.9165
91.5260	580.0000	24.0832
91.8369	622.0000	24.9399
92.1478	572.0000	23.9165
92.4588	617.0000	24.8395
92.7697	594.0000	24.3721
93.0806	587.0000	24.2281
93.3915	623.0000	24.9600
93.7025	698.0000	26.4197
94.0134	707.0000	26.5895
94.3243	800.0000	28.2843
94.6352	846.0000	29.0861
94.9461	909.0000	30.1496
95.2571	871.0000	29.5127
95.5680	835.0000	28.8964
95.8789	827.0000	28.7576
96.1898	733.0000	27.0740
96.5007	700.0000	26.4575
96.8117	659.0000	25.6710
97.1226	660.0000	25.6905
97.4335	621.0000	24.9199
97.7444	520.0000	22.8035
98.0553	578.0000	24.0416
98.3663	576.0000	24.0000
98.6772	541.0000	23.2594
98.9881	601.0000	24.5153
99.2990	574.0000	23.9583
99.6100	612.0000	24.7386
99.9209	747.0000	27.3313
100.2318	1205	34.7131
100.5427	1993	44.6430
100.8536	1611	40.1373
101.1646	936.0000	30.5941
101.4755	647.0000	25.4362
101.7864	600.0000	24.4949
102.0973	483.0000	21.9773
102.4082	584.0000	24.1661
102.7192	503.0000	22.4277
103.0301	545.0000	23.3452
103.3410	517.0000	22.7376
103.6519	488.0000	22.0907
103.9629	550.0000	23.4521
104.2738	505.0000	22.4722
104.5847	517.0000	22.7376
104.8956	529.0000	23.0000
105.2065	524.0000	22.8910
105.5175	511.0000	22.6053
105.8284	491.0000	22.1585
106.1393	525.0000	22.9129
106.4502	525.0000	22.9129
106.7611	523.0000	22.8692
107.0721	596.0000	24.4131
107.3830	598.0000	24.4540
107.6939	578.0000	24.0416
108.0048	629.0000	25.0799
108.3157	620.0000	24.8998
108.6267	619.0000	24.8797
108.9376	612.0000	24.7386
109.2485	645.0000	25.3969
109.5594	667.0000	25.8263
109.8704	649.0000	25.4755
110.0117	640.0000	25.2982

File: 9_W0.40Ta0.40Ti0.20_SPS1400C_txt.txt
1.544427
20.2968	50.3333	2.3649
20.6077	48.3333	2.3174
20.9186	46.2105	2.2055
21.2296	45.0526	2.1777
21.5405	46.6000	2.1587
21.8514	46.1000	2.1471
22.1623	41.9000	2.0469
22.4732	44.4000	2.1071
22.7842	45.0000	2.1213
23.0951	39.0000	1.9748
23.4060	43.2000	2.0785
23.7169	41.0000	2.0248
24.0278	39.5000	1.9875
24.3388	37.3000	1.9313
24.6497	35.2000	1.8762
24.9606	34.6000	1.8601
25.2715	37.2381	1.8832
25.5824	34.5714	1.8145
25.8934	35.5455	1.7976
26.2043	35.7273	1.8022
26.5152	34.6364	1.7745
26.8261	36.4545	1.8205
27.1371	31.7273	1.6983
27.4480	32.7273	1.7249
27.7589	31.8182	1.7008
28.0698	32.7273	1.7249
28.3807	31.7273	1.6983
28.6917	31.3636	1.6886
29.0026	32.5455	1.7201
29.3135	32.6364	1.7225
29.6244	30.2609	1.6222
29.9353	27.4783	1.5458
30.2463	29.1667	1.5590
30.5572	24.6667	1.4337
30.8681	27.2500	1.5069
31.1790	26.5833	1.4884
31.4900	28.7500	1.5478
31.8009	27.0833	1.5023
32.1118	27.0833	1.5023
32.4227	28.0833	1.5298
32.7336	27.7500	1.5207
33.0446	25.2500	1.4506
33.3555	27.5000	1.5138
33.6664	24.7500	1.4361
33.9773	26.6400	1.4599
34.2882	24.6400	1.4040
34.5992	26.3846	1.4246
34.9101	27.8462	1.4636
35.2210	25.8462	1.4100
35.5319	23.2308	1.3368
35.8428	26.9231	1.4391
36.1538	26.1538	1.4184
36.4647	25.3846	1.3974
36.7756	23.0769	1.3323
37.0865	26.0769	1.4163
37.3975	28.5385	1.4816
37.7084	31.1538	1.5480
38.0193	36.7692	1.6818
38.3302	65.4074	2.2011
38.6411	283.4074	4.5818
38.9521	216.6667	4.0062
39.2630	164.7143	3.4301
39.5739	175.1429	3.5370
39.8848	203.4286	3.8119
40.1957	193.7143	3.7198
40.5067	84.1429	2.4516
40.8176	32.2143	1.5169
41.1285	25.7143	1.3553
41.4394	25.5000	1.3496
41.7504	22.9286	1.2797
42.0613	23.1429	1.2857
42.3722	21.2143	1.2310
42.6831	21.1034	1.2064
42.9940	22.2759	1.2395
43.3050	20.0690	1.1765
43.6159	21.6000	1.2000
43.9268	19.8000	1.1489
44.2377	19.4000	1.1372
44.5486	19.0667	1.1274
44.8596	19.4667	1.1392
45.1705	17.7333	1.0873
45.4814	18.0000	1.0954
45.7923	16.2667	1.0414
46.1032	18.8000	1.1195
46.4142	20.6667	1.1738
46.7251	17.4839	1.0621
47.0360	17.5484	1.0640
47.3469	16.3226	1.0262
47.6579	17.6875	1.0514
47.9688	17.4375	1.0440
48.2797	18.1250	1.0643
48.5906	16.9375	1.0289
48.9015	15.5000	0.9843
49.2125	15.7500	0.9922
49.5234	15.0000	0.9682
49.8343	16.1250	1.0039
50.1452	15.1250	0.9723
50.4561	15.5625	0.9862
50.7671	16.1212	0.9885
51.0780	15.3939	0.9659
51.3889	15.6970	0.9754
51.6998	15.1765	0.9448
52.0107	14.7059	0.9301
52.3217	16.3529	0.9808
52.6326	13.6471	0.8960
52.9435	13.4118	0.8882
53.2544	13.7647	0.8998
53.5654	16.2353	0.9772
53.8763	15.6471	0.9594
54.1872	14.1765	0.9132
54.4981	16.4118	0.9825
54.8090	16.4000	0.9681
55.1200	19.7714	1.0629
55.4309	29.5429	1.2993
55.7418	46.9444	1.6149
56.0527	43.8333	1.5605
56.3636	33.8333	1.3710
56.6746	35.7222	1.4087
56.9855	35.3333	1.4011
57.2964	42.2222	1.5316
57.6073	43.4444	1.5536
57.9183	41.6667	1.5215
58.2292	53.6111	1.7258
58.5401	25.6216	1.1768
58.8510	18.0541	0.9879
59.1619	13.5135	0.8547
59.4729	13.6757	0.8598
59.7838	13.3158	0.8372
60.0947	12.9474	0.8255
60.4056	14.1579	0.8632
60.7165	12.7368	0.8188
61.0275	12.8421	0.8221
61.3384	12.4211	0.8085
61.6493	13.3158	0.8372
61.9602	12.3684	0.8068
62.2711	13.4211	0.8405
62.5821	12.8205	0.8108
62.8930	10.9744	0.7502
63.2039	11.4872	0.7675
63.5148	10.9744	0.7502
63.8258	11.5122	0.7494
64.1367	12.4878	0.7805
64.4476	13.1707	0.8015
64.7585	12.6829	0.7866
65.0694	12.1860	0.7529
65.3804	13.6279	0.7962
65.6913	11.7209	0.7383
66.0022	12.5000	0.7538
66.3131	11.4667	0.7139
66.6240	11.9556	0.7289
66.9350	12.8000	0.7542
67.2459	13.0638	0.7456
67.5568	12.1277	0.7184
67.8677	12.2979	0.7234
68.1787	13.0638	0.7456
68.4896	13.5102	0.7426
68.8005	13.5918	0.7448
69.1114	16.0816	0.8102
69.4223	21.7143	0.9414
69.7333	42.9804	1.2983
70.0442	58.1961	1.5107
70.3551	48.8627	1.3843
70.6660	35.6923	1.1717
70.9769	35.7736	1.1619
71.2879	35.0566	1.1502
71.5988	38.6038	1.2070
71.9097	42.0370	1.2478
72.2206	45.6364	1.2882
72.5315	46.1091	1.2949
72.8425	44.6182	1.2738
73.1534	63.3214	1.5038
73.4643	38.9474	1.1690
73.7752	17.4737	0.7830
74.0862	13.7193	0.6938
74.3971	12.2759	0.6506
74.7080	13.2881	0.6712
75.0189	12.2034	0.6432
75.3298	12.5763	0.6529
75.6408	11.4333	0.6173
75.9517	11.6721	0.6186
76.2626	12.6230	0.6433
76.5735	12.2581	0.6288
76.8844	11.3548	0.6052
77.1954	11.7143	0.6098
77.5063	11.8730	0.6139
77.8172	11.7188	0.6052
78.1281	10.8438	0.5821
78.4390	11.2000	0.5870
78.7500	10.2462	0.5615
79.0609	10.2727	0.5579
79.3718	11.3030	0.5852
79.6827	11.1642	0.5773
79.9937	9.8507	0.5423
80.3046	10.8235	0.5642
80.6155	11.1765	0.5733
80.9264	11.8841	0.5869
81.2373	10.6571	0.5518
81.5483	11.3429	0.5693
81.8592	11.8571	0.5820
82.1701	13.0141	0.6055
82.4810	15.9722	0.6661
82.7919	24.5000	0.8250
83.1029	24.3611	0.8226
83.4138	21.6164	0.7696
83.7247	19.1892	0.7202
84.0356	16.5135	0.6681
84.3466	16.4865	0.6675
84.6575	17.8133	0.6892
84.9684	17.6316	0.6812
85.2793	18.5000	0.6977
85.5902	17.4737	0.6781
85.9012	19.5385	0.7078
86.2121	18.5128	0.6890
86.5230	17.1538	0.6632
86.8339	19.5897	0.7087
87.1448	20.3000	0.7124
87.4558	14.2000	0.5958
87.7667	12.2750	0.5540
88.0776	10.8500	0.5208
88.3885	10.1707	0.4981
88.6994	11.1220	0.5208
89.0104	11.8049	0.5366
89.3213	10.4390	0.5046
89.6322	11.4762	0.5227
89.9431	10.3810	0.4972
90.2541	10.6190	0.5028
90.5650	10.8095	0.5073
90.8759	10.6977	0.4988
91.1868	10.9302	0.5042
91.4977	11.3488	0.5137
91.8087	11.0682	0.5015
92.1196	10.4545	0.4874
92.4305	10.8409	0.4964
92.7414	10.7955	0.4953
93.0523	11.4889	0.5053
93.3633	11.4667	0.5048
93.6742	11.5778	0.5072
93.9851	11.4000	0.5033
94.2960	13.0435	0.5325
94.6070	14.6087	0.5635
94.9179	18.2826	0.6304
95.2288	24.1087	0.7239
95.5397	24.9787	0.7290
95.8506	23.8723	0.7127
96.1616	21.0000	0.6684
96.4725	20.2105	0.6523
96.7834	20.2292	0.6492
97.0943	18.5833	0.6222
97.4052	18.3958	0.6191
97.7162	19.0103	0.6261
98.0271	20.1020	0.6405
98.3380	21.7755	0.6666
98.6489	21.1837	0.6575
98.9598	23.0408	0.6857
99.2708	23.3600	0.6835
99.5817	24.6800	0.7026
99.8926	23.0600	0.6791
100.2035	21.9000	0.6618
100.5145	28.0000	0.7410
100.8254	23.8235	0.6835
101.1363	17.4510	0.5850
101.4472	13.1176	0.5072
101.7581	12.2941	0.4910
102.0691	11.8654	0.4777
102.3800	11.5192	0.4707
102.6909	11.5192	0.4707
103.0018	12.3462	0.4873
103.3127	11.7905	0.4739
103.6237	11.2075	0.4599
103.9346	11.7547	0.4709
104.2455	11.4906	0.4656
104.5564	12.0377	0.4766
104.8674	10.6852	0.4448
105.1783	10.7963	0.4471
105.4892	10.9259	0.4498
105.8001	11.6667	0.4648
106.1110	11.7798	0.4649
106.4220	11.0909	0.4491
106.7329	12.2000	0.4710
107.0438	10.9273	0.4457
107.3547	12.3091	0.4731
107.6656	13.7838	0.4984
107.9766	15.6071	0.5279
108.2875	16.4821	0.5425
108.5984	15.7321	0.5300
108.9093	14.7115	0.5319
109.2202	14.2128	0.5499
109.5312	13.7108	0.5748
109.8421	13.3611	0.6092
109.9834	12.8657	0.6197

File: 10_W0.40Ta0.40Cr0.10Ti0.10_SPS1400C_txt.txt
1.544427
20.2968	51.0000	2.3805
20.6077	42.7778	2.1802
20.9186	47.2632	2.2305
21.2296	44.4211	2.1624
21.5405	46.9000	2.1656
21.8514	39.8000	1.9950
22.1623	41.6000	2.0396
22.4732	44.6000	2.1119
22.7842	42.5000	2.0616
23.0951	36.9000	1.9209
23.4060	37.0000	1.9235
23.7169	41.4000	2.0347
24.0278	39.9000	1.9975
24.3388	39.1000	1.9774
24.6497	37.2000	1.9287
24.9606	39.3000	1.9824
25.2715	35.8095	1.8467
25.5824	37.9048	1.9000
25.8934	37.7273	1.8520
26.2043	35.7273	1.8022
26.5152	33.0000	1.7321
26.8261	32.2727	1.7129
27.1371	31.0000	1.6787
27.4480	36.4545	1.8205
27.7589	32.6364	1.7225
28.0698	32.0000	1.7056
28.3807	28.8182	1.6186
28.6917	32.3636	1.7153
29.0026	30.6364	1.6689
29.3135	33.4545	1.7439
29.6244	28.0000	1.5604
29.9353	29.8261	1.6105
30.2463	31.8333	1.6287
30.5572	30.6667	1.5986
30.8681	29.0833	1.5568
31.1790	30.0000	1.5811
31.4900	30.6667	1.5986
31.8009	27.0833	1.5023
32.1118	28.9167	1.5523
32.4227	29.6667	1.5723
32.7336	26.2500	1.4790
33.0446	25.2500	1.4506
33.3555	22.9167	1.3819
33.6664	25.0833	1.4458
33.9773	26.0000	1.4422
34.2882	22.4800	1.3410
34.5992	25.7692	1.4079
34.9101	26.5385	1.4288
35.2210	29.5385	1.5074
35.5319	24.2308	1.3652
35.8428	26.9231	1.4391
36.1538	26.3846	1.4246
36.4647	28.8462	1.4896
36.7756	25.9231	1.4121
37.0865	26.4615	1.4267
37.3975	25.4615	1.3995
37.7084	25.4615	1.3995
38.0193	32.4615	1.5802
38.3302	41.7037	1.7576
38.6411	76.6667	2.3831
38.9521	171.2593	3.5617
39.2630	261.7857	4.3242
39.5739	260.3571	4.3124
39.8848	258.2857	4.2952
40.1957	337.0714	4.9068
40.5067	89.7143	2.5314
40.8176	39.7857	1.6858
41.1285	31.3571	1.4966
41.4394	25.2143	1.3420
41.7504	27.4286	1.3997
42.0613	25.9286	1.3609
42.3722	24.7857	1.3306
42.6831	24.4828	1.2994
42.9940	24.4828	1.2994
43.3050	22.4828	1.2452
43.6159	21.2000	1.1888
43.9268	18.9333	1.1235
44.2377	20.6000	1.1719
44.5486	19.2000	1.1314
44.8596	18.3333	1.1055
45.1705	19.2000	1.1314
45.4814	20.0000	1.1547
45.7923	18.2667	1.1035
46.1032	17.5333	1.0812
46.4142	19.7333	1.1470
46.7251	17.7419	1.0699
47.0360	15.5484	1.0016
47.3469	18.2581	1.0853
47.6579	17.8125	1.0551
47.9688	16.4375	1.0136
48.2797	17.6875	1.0514
48.5906	15.3125	0.9783
48.9015	15.1250	0.9723
49.2125	14.5000	0.9520
49.5234	15.1875	0.9743
49.8343	14.8750	0.9642
50.1452	17.0000	1.0308
50.4561	15.9375	0.9980
50.7671	13.5758	0.9071
51.0780	14.3636	0.9330
51.3889	13.5758	0.9071
51.6998	14.3529	0.9189
52.0107	15.2353	0.9467
52.3217	13.7647	0.8998
52.6326	13.8824	0.9037
52.9435	14.5882	0.9264
53.2544	16.1765	0.9755
53.5654	13.0588	0.8765
53.8763	13.9412	0.9056
54.1872	14.3529	0.9189
54.4981	15.1176	0.9430
54.8090	14.8000	0.9196
55.1200	16.5714	0.9731
55.4309	16.0000	0.9562
55.7418	20.5000	1.0672
56.0527	28.5556	1.2595
56.3636	37.2778	1.4391
56.6746	47.2778	1.6207
56.9855	48.5556	1.6424
57.2964	51.9444	1.6988
57.6073	52.1111	1.7015
57.9183	48.9444	1.6490
58.2292	61.8333	1.8534
58.5401	27.3514	1.2159
58.8510	17.1892	0.9639
59.1619	15.8378	0.9253
59.4729	14.0000	0.8699
59.7838	13.7895	0.8519
60.0947	14.0000	0.8584
60.4056	12.6842	0.8171
60.7165	13.1579	0.8322
61.0275	13.2632	0.8355
61.3384	11.7895	0.7877
61.6493	12.3158	0.8051
61.9602	14.0526	0.8600
62.2711	14.5263	0.8744
62.5821	11.2821	0.7606
62.8930	13.1795	0.8221
63.2039	11.3333	0.7624
63.5148	13.2821	0.8253
63.8258	15.0732	0.8575
64.1367	12.9756	0.7956
64.4476	12.5854	0.7835
64.7585	13.1707	0.8015
65.0694	13.1163	0.7811
65.3804	11.5349	0.7325
65.6913	12.0000	0.7471
66.0022	11.8636	0.7343
66.3131	12.8889	0.7569
66.6240	13.4222	0.7724
66.9350	12.9333	0.7582
67.2459	11.3617	0.6953
67.5568	11.9149	0.7121
67.8677	11.0638	0.6861
68.1787	13.3617	0.7540
68.4896	11.7551	0.6927
68.8005	12.2857	0.7081
69.1114	13.6327	0.7459
69.4223	14.7755	0.7766
69.7333	14.4314	0.7523
70.0442	18.7843	0.8583
70.3551	22.8627	0.9469
70.6660	29.8462	1.0714
70.9769	35.4340	1.1563
71.2879	42.5283	1.2668
71.5988	38.9811	1.2128
71.9097	40.3333	1.2222
72.2206	39.4545	1.1978
72.5315	39.9273	1.2049
72.8425	44.9091	1.2779
73.1534	55.0000	1.4015
73.4643	32.3158	1.0648
73.7752	17.7193	0.7885
74.0862	14.2807	0.7079
74.3971	13.9655	0.6940
74.7080	12.5424	0.6520
75.0189	12.0339	0.6387
75.3298	11.5254	0.6251
75.6408	11.9333	0.6307
75.9517	11.7705	0.6212
76.2626	11.5410	0.6151
76.5735	11.6129	0.6121
76.8844	10.9355	0.5939
77.1954	11.3968	0.6015
77.5063	10.9841	0.5905
77.8172	11.4375	0.5978
78.1281	11.8438	0.6084
78.4390	11.4769	0.5943
78.7500	10.5846	0.5707
79.0609	10.9697	0.5766
79.3718	11.0909	0.5797
79.6827	10.5075	0.5600
79.9937	11.6716	0.5903
80.3046	10.5588	0.5573
80.6155	11.4118	0.5793
80.9264	9.4493	0.5233
81.2373	10.5714	0.5496
81.5483	11.3143	0.5686
81.8592	11.4286	0.5714
82.1701	11.2676	0.5634
82.4810	11.8333	0.5733
82.7919	12.2222	0.5827
83.1029	12.4444	0.5879
83.4138	14.2192	0.6242
83.7247	16.6486	0.6708
84.0356	18.3243	0.7037
84.3466	19.5135	0.7262
84.6575	21.2267	0.7524
84.9684	20.0263	0.7260
85.2793	20.8684	0.7411
85.5902	20.7105	0.7383
85.9012	21.3846	0.7405
86.2121	21.5641	0.7436
86.5230	21.3333	0.7396
86.8339	28.4615	0.8543
87.1448	23.1500	0.7608
87.4558	15.0000	0.6124
87.7667	12.2750	0.5540
88.0776	10.6250	0.5154
88.3885	11.0244	0.5185
88.6994	10.2439	0.4999
89.0104	10.3415	0.5022
89.3213	10.3902	0.5034
89.6322	10.8810	0.5090
89.9431	10.1429	0.4914
90.2541	9.9048	0.4856
90.5650	11.0000	0.5118
90.8759	9.9302	0.4806
91.1868	10.2326	0.4878
91.4977	11.1163	0.5084
91.8087	10.0682	0.4784
92.1196	10.6591	0.4922
92.4305	11.0000	0.5000
92.7414	11.0227	0.5005
93.0523	10.3778	0.4802
93.3633	10.6889	0.4874
93.6742	10.8667	0.4914
93.9851	12.4222	0.5254
94.2960	11.8913	0.5084
94.6070	11.9783	0.5103
94.9179	12.1087	0.5131
95.2288	13.0000	0.5316
95.5397	14.6596	0.5585
95.8506	15.3191	0.5709
96.1616	16.8723	0.5992
96.4725	19.1368	0.6347
96.7834	21.8958	0.6754
97.0943	24.6667	0.7169
97.4052	25.5625	0.7298
97.7162	26.1443	0.7342
98.0271	25.0816	0.7155
98.3380	26.7551	0.7389
98.6489	27.4082	0.7479
98.9598	26.0408	0.7290
99.2708	29.1000	0.7629
99.5817	27.4000	0.7403
99.8926	27.7200	0.7446
100.2035	30.2200	0.7774
100.5145	36.1373	0.8418
100.8254	31.0392	0.7801
101.1363	20.2549	0.6302
101.4472	14.7843	0.5384
101.7581	13.4706	0.5139
102.0691	13.0000	0.5000
102.3800	12.2500	0.4854
102.6909	12.0577	0.4815
103.0018	12.1154	0.4827
103.3127	12.5143	0.4882
103.6237	12.2264	0.4803
103.9346	11.4340	0.4645
104.2455	11.5283	0.4664
104.5564	11.4717	0.4652
104.8674	11.6296	0.4641
105.1783	11.7407	0.4663
105.4892	11.4815	0.4611
105.8001	11.0556	0.4525
106.1110	11.9633	0.4685
106.4220	11.9818	0.4667
106.7329	12.7273	0.4810
107.0438	11.2909	0.4531
107.3547	11.5818	0.4589
107.6656	11.4775	0.4548
107.9766	11.4643	0.4525
108.2875	11.3214	0.4496
108.5984	11.0893	0.4450
108.9093	11.6154	0.4726
109.2202	12.5745	0.5172
109.5312	11.8313	0.5339
109.8421	13.0833	0.6028
109.9834	12.1791	0.6030